aX	aY	aZ	gX	gY	gZ	
0.3997	-0.5857	0.0530	446.8994	55.8472	-7.7515
0.1542	-0.5525	0.2443	223.0835	14.6484	-16.9067
0.1042	-0.1224	0.2633	51.8188	-36.3770	-41.3208
-0.0580	0.3015	0.2998	-54.2603	-87.1582	-69.0918
-0.3181	0.4944	0.3368	-102.4780	-125.7324	-88.4399
-0.6073	0.6613	0.3212	-108.6426	-136.9019	-92.7734
-0.8990	0.7092	0.3052	-95.0317	-120.6665	-81.4819
-1.0687	0.6628	0.3380	-79.2236	-83.9233	-53.5278
-0.9827	0.5562	0.3916	-66.4673	-30.7007	-18.4937
-0.7426	0.4946	0.4587	-59.1431	24.7192	9.2163
-0.5396	0.4353	0.5000	-60.3027	63.5986	26.6724
-0.3955	0.3529	0.5415	-72.2046	78.7964	32.2266
-0.2798	0.3033	0.5641	-92.6514	75.0122	28.9307
-0.1567	0.3080	0.5337	-115.2954	64.2700	20.4468
-0.0638	0.3461	0.5007	-137.8174	52.7344	7.8735
-0.0265	0.3938	0.4686	-161.3159	44.3726	-6.4697
-0.0248	0.4584	0.4541	-184.0210	40.1611	-21.4233
-0.0378	0.5488	0.4670	-203.7964	39.0625	-35.3394
-0.0909	0.6635	0.4633	-218.0786	41.1377	-44.9219
-0.1571	0.7582	0.4794	-227.7832	42.6636	-47.9126
-0.1862	0.8164	0.5042	-234.0698	43.4570	-45.2271
-0.1926	0.8475	0.5323	-235.4736	45.4102	-39.3677
-0.1605	0.8655	0.5503	-232.4829	48.7061	-30.7617
-0.0977	0.8761	0.5443	-226.3794	51.9409	-21.5454
-0.0475	0.8879	0.5571	-219.7876	51.1475	-13.5498
-0.0201	0.8994	0.5999	-213.0127	43.8843	-6.1646
-0.0143	0.9196	0.6431	-203.4912	32.0435	-0.6104
-0.0153	0.9307	0.6815	-190.0024	18.6768	3.6011
-0.0150	0.9310	0.6934	-172.4243	5.7373	7.1411
-0.0131	0.9281	0.6631	-152.4048	-5.8594	9.8877
-0.0073	0.9200	0.6045	-133.5449	-15.6860	11.4136
0.0104	0.9160	0.5625	-117.9810	-24.1699	11.2915
0.0199	0.9183	0.5223	-104.9194	-32.8369	9.7656
0.0042	0.9248	0.4930	-94.3604	-40.8936	7.8735
-0.0406	0.9469	0.4678	-85.3271	-46.4478	6.1035
-0.0861	0.9689	0.4368	-77.3926	-48.1567	4.9438
-0.1132	0.9822	0.4122	-71.1060	-45.5322	2.8687
-0.1285	0.9945	0.4076	-66.1621	-38.7573	-0.0610
-0.1455	1.0076	0.3990	-61.2793	-29.1138	-3.4180
-0.1505	1.0151	0.3875	-56.8237	-17.8223	-6.5918
-0.1356	1.0112	0.3644	-53.0396	-7.6904	-10.1318
-0.1270	0.9993	0.3336	-50.6592	-1.0986	-13.2446
-0.1143	0.9838	0.3030	-50.3540	3.3569	-14.1602
-0.0946	0.9685	0.2886	-52.0630	5.0049	-13.4277
-0.0844	0.9540	0.2771	-54.7485	1.9531	-11.2915
-0.0835	0.9492	0.2704	-57.8003	-3.2959	-8.3618
-0.0913	0.9482	0.2670	-60.4248	-8.6060	-5.4321
-0.0958	0.9426	0.2522	-61.7065	-13.1836	-3.0518
-0.0972	0.9285	0.2351	-62.1948	-16.8457	-1.6479
-0.1166	0.9142	0.2128	-61.7676	-19.6533	-0.1831
-0.1317	0.9111	0.1898	-60.7910	-19.9585	1.2207
-0.1249	0.9117	0.1630	-61.6455	-18.5547	1.8311
-0.1066	0.9156	0.1407	-63.8428	-16.6016	1.8311
-0.1056	0.9241	0.1296	-67.8711	-15.3198	1.6479
-0.1226	0.9290	0.1260	-71.9604	-13.4888	1.7700
-0.1180	0.9309	0.1219	-76.9653	-11.2305	2.1362
-0.1049	0.9335	0.1207	-81.9702	-9.6436	1.8311
-0.0950	0.9299	0.1249	-85.8765	-9.0942	1.8311
-0.0875	0.9271	0.1150	-88.8062	-9.2163	2.6245
-0.0720	0.9237	0.1195	-90.8203	-10.4980	4.1504
-0.0521	0.9413	0.1256	-92.1021	-13.0005	5.0659
-0.0237	0.9597	0.1525	-92.5903	-15.1367	5.3101
0.0211	0.9819	0.1653	-91.0645	-15.3809	5.5542
0.0785	0.9989	0.1566	-87.4634	-14.5264	5.9814
0.0768	1.0238	0.1914	-82.3975	-15.6860	5.9204
-0.0607	1.1116	0.2952	-73.9136	-19.6533	7.8125
-0.3186	1.2458	0.5532	-52.4902	-24.1089	15.1978
-0.5414	1.3196	0.7838	-6.5308	-27.5879	27.5879
-0.6456	1.3615	1.0217	62.2559	-36.0718	43.5791
-0.6530	1.3726	1.2319	147.5220	-45.2881	64.6362
-0.5997	1.4995	1.2445	248.7793	-34.1797	85.0220
-0.5734	1.5770	0.9646	373.2300	-4.7607	98.8159
-0.4363	1.6002	0.8986	483.5815	38.7573	106.0181
-0.2156	1.6635	0.8696	587.8296	90.0269	98.1445
0.1814	1.7350	0.5674	686.4014	124.7559	70.9229
0.3843	1.7679	0.2109	754.7607	123.0469	33.4473
0.2242	1.6833	-0.0457	783.2642	104.6143	0.8545
0.0962	1.3665	-0.2139	766.9678	101.9287	-18.4326
-0.0640	0.8921	-0.1401	705.2612	118.1030	-22.5830
-0.0430	0.2979	-0.3844	603.4546	148.7427	-7.9346
0.0839	-0.3088	-0.1924	437.2559	174.1943	5.7983
0.2722	-0.5466	0.1903	246.0937	170.2271	3.6621
0.5135	-0.2714	0.3937	82.5806	122.4976	-16.9678
0.4446	0.1337	0.4609	-37.4756	37.4756	-44.2505
0.2610	0.3802	0.4066	-114.0137	-59.2651	-67.6880
0.0414	0.4380	0.3300	-155.5176	-139.1602	-91.3086
-0.2053	0.4644	0.2936	-182.0679	-189.1479	-105.0415
-0.4596	0.4985	0.2606	-202.6978	-197.2656	-105.8960
-0.6046	0.5475	0.2329	-221.6187	-168.2129	-94.6045
-0.5839	0.6228	0.1890	-239.3188	-116.5771	-75.9277
-0.4996	0.7119	0.1357	-255.3101	-58.5327	-57.0679
-0.4489	0.7648	0.0854	-270.9351	-9.2773	-40.0391
-0.4502	0.8000	0.1108	-288.5742	25.6348	-22.8271
-0.4020	0.8303	0.1958	-304.1382	49.8657	-7.2021
-0.2733	0.8506	0.2914	-310.7300	67.0166	3.6011
-0.1550	0.8612	0.3356	-307.0068	74.1577	7.7515
-0.0829	0.8787	0.3618	-299.1333	68.8477	6.7139
-0.0215	0.9021	0.3943	-290.7715	53.4058	3.9673
0.0166	0.9277	0.4103	-281.1890	32.2876	0.7935
0.0388	0.9517	0.4348	-269.3481	9.8877	-2.9297
0.0127	0.9883	0.4020	-256.0425	-10.9863	-8.6060
-0.0487	1.0272	0.3983	-243.5303	-27.9541	-13.4277
-0.1150	1.0475	0.3887	-229.8584	-40.7104	-15.0757
-0.1613	1.0504	0.3942	-215.3931	-48.3398	-14.7095
-0.1943	1.0552	0.4031	-200.5005	-51.4526	-13.6719
-0.2092	1.0582	0.3995	-183.9600	-48.6450	-12.8174
-0.2152	1.0576	0.3887	-165.7715	-40.0391	-11.4746
-0.2133	1.0564	0.3829	-146.7285	-28.1982	-9.0332
-0.2166	1.0590	0.3693	-127.1973	-15.9912	-5.8594
-0.2029	1.0575	0.3450	-107.9712	-4.3335	-2.4414
-0.1666	1.0465	0.3177	-90.4541	5.9204	0.9155
-0.1329	1.0300	0.2987	-75.1953	14.5874	4.3945
-0.1008	1.0184	0.2875	-62.6831	20.6909	7.5073
-0.0758	1.0076	0.2841	-51.6357	22.5830	10.1929
-0.0597	0.9946	0.2751	-41.3818	21.1792	12.0850
-0.0483	0.9873	0.2620	-32.8369	17.7002	13.4888
-0.0491	0.9849	0.2461	-25.8179	13.6719	14.5264
-0.0424	0.9788	0.2306	-20.6299	10.5591	14.7705
-0.0315	0.9644	0.2153	-17.1509	7.9956	14.7705
-0.0287	0.9503	0.1917	-15.3809	4.6997	14.9536
-0.0380	0.9429	0.1691	-14.8315	1.7700	15.3198
-0.0570	0.9343	0.1525	-15.0146	-0.7935	15.6860
-0.0737	0.9205	0.1302	-15.3809	-2.9297	15.0146
-0.0824	0.9047	0.1166	-16.5405	-4.6997	14.2212
-0.0905	0.8975	0.1046	-18.1885	-6.2866	13.0615
-0.0980	0.8929	0.0891	-19.9585	-7.2632	11.6577
-0.1079	0.8898	0.0829	-22.3389	-7.4463	10.3760
-0.1091	0.8846	0.0807	-24.8413	-7.1411	9.5215
-0.1112	0.8835	0.0677	-27.5879	-6.6528	8.1177
-0.1093	0.8810	0.0469	-30.7007	-5.9204	6.8359
-0.1014	0.8779	0.0447	-35.0342	-5.0659	5.5542
-0.1019	0.8811	0.0499	-39.9170	-5.1270	3.8452
-0.1060	0.8883	0.0442	-44.2505	-5.7983	2.3804
-0.1101	0.8964	0.0480	-48.1567	-6.2866	1.7700
-0.0983	0.9060	0.0436	-51.1475	-6.3477	1.5869
-0.0868	0.9120	0.0538	-54.3823	-6.5918	0.4272
-0.0917	0.9205	0.0596	-56.3354	-6.3477	-0.7324
-0.0850	0.9226	0.0616	-56.7627	-5.4932	-1.2817
-0.0547	0.9276	0.0630	-57.3120	-4.8828	-1.4648
0.0009	0.9498	0.0543	-58.4106	-4.7607	-1.5869
0.0366	1.0116	0.0383	-59.5703	-5.7983	-2.1973
-0.0383	1.0830	0.1652	-58.1055	-11.7187	-3.3569
-0.3188	1.2437	0.5138	-44.7388	-16.0522	-3.4790
-0.5713	1.4103	0.7760	-1.9531	-15.0146	3.2349
-0.6758	1.5210	1.0416	67.7490	-12.0239	15.1367
-0.6571	1.5730	1.0553	159.1187	-11.4746	36.3159
-0.4927	1.5724	1.1702	257.0801	-5.4321	59.0210
-0.4413	1.5883	0.9558	365.5396	10.9253	72.8149
-0.4954	1.6757	0.8542	471.5576	41.0156	78.2471
-0.4644	1.7678	0.8499	577.4536	96.2524	69.3359
-0.1748	1.8978	0.6932	681.2134	155.6396	46.9360
0.2262	1.9357	0.2615	764.7095	189.5752	17.9443
0.2843	1.8101	0.0183	802.7344	184.5093	-10.4980
0.1681	1.5558	-0.1372	793.5181	158.2031	-22.8271
0.2850	1.1354	-0.2410	738.4033	129.5166	-12.5732
0.5786	0.4438	-0.4124	625.4272	95.4590	-0.5493
0.4781	-0.2949	-0.4021	442.3218	56.8848	5.2490
0.1425	-0.6997	-0.1630	221.0083	19.4092	3.2959
0.0244	-0.4019	0.1348	19.5313	-21.3013	-20.5688
-0.0490	0.3053	0.2932	-115.0513	-64.6362	-50.2319
-0.1251	0.6329	0.2626	-178.4058	-106.1401	-63.9038
-0.2770	0.5436	0.2220	-197.4487	-132.8125	-67.3828
-0.4240	0.4469	0.2198	-205.5664	-142.8223	-65.7959
-0.4871	0.4634	0.1562	-211.9141	-128.4180	-63.2935
-0.5220	0.5189	0.0680	-222.4121	-93.8721	-57.9224
-0.4950	0.5706	0.0516	-242.3706	-48.7671	-49.5605
-0.3452	0.6245	0.0331	-264.5264	-2.6245	-42.3584
-0.1718	0.6183	0.0303	-283.4473	31.4331	-40.1001
-0.0500	0.6423	0.1420	-303.1616	41.5039	-46.0815
-0.0321	0.7443	0.3481	-318.6035	29.7852	-55.6030
-0.1044	0.8793	0.5239	-319.6411	9.0332	-61.7065
-0.1637	0.9725	0.5972	-304.3213	-11.5356	-61.5845
-0.1708	0.9874	0.5934	-280.4565	-31.2500	-57.7393
-0.1522	0.9705	0.5909	-257.0190	-49.5605	-51.7578
-0.1581	0.9688	0.5448	-232.9712	-65.9790	-45.7153
-0.1886	0.9749	0.4652	-211.2427	-78.7354	-38.6353
-0.2184	0.9949	0.4272	-194.4580	-84.4116	-31.1890
-0.2466	1.0071	0.3472	-179.9316	-82.9468	-22.1558
-0.2826	1.0118	0.2592	-168.1519	-74.8291	-12.7563
-0.3068	1.0153	0.2449	-159.6069	-61.8286	-2.7466
-0.3071	1.0225	0.2739	-149.5972	-44.8608	5.7983
-0.2721	1.0225	0.3245	-136.5967	-27.6489	11.3525
-0.2252	1.0275	0.3619	-121.9482	-14.6484	14.1602
-0.2023	1.0424	0.3696	-106.0791	-5.1880	16.5405
-0.1719	1.0314	0.3529	-89.9048	1.4038	18.7988
-0.1411	1.0100	0.3318	-76.4160	4.8218	20.0195
-0.1116	0.9948	0.2988	-66.0400	4.2114	19.4702
-0.0945	0.9788	0.2517	-58.2886	1.7700	19.0430
-0.0844	0.9646	0.2195	-53.2227	0.5493	18.5547
-0.0813	0.9567	0.1969	-50.1099	0.7935	16.6626
-0.0815	0.9487	0.1688	-47.7905	1.4648	14.0381
-0.0698	0.9424	0.1484	-46.6919	3.0518	10.7422
-0.0543	0.9326	0.1364	-47.3022	4.6997	7.1411
-0.0574	0.9246	0.1421	-47.9736	5.1270	3.4180
-0.0790	0.9247	0.1510	-48.4619	5.0659	0.2441
-0.0957	0.9253	0.1494	-48.1567	4.8828	-1.7090
-0.1039	0.9275	0.1511	-47.1191	5.2490	-3.0518
-0.1022	0.9255	0.1494	-45.5933	6.1646	-3.6621
-0.0962	0.9225	0.1525	-42.9688	5.7983	-3.9062
-0.0925	0.9261	0.1501	-40.7104	3.1738	-3.9062
-0.1079	0.9346	0.1400	-38.0859	-0.7324	-3.4790
-0.1183	0.9309	0.1252	-34.6680	-3.4180	-2.5024
-0.1327	0.9259	0.1023	-31.6772	-5.0049	-1.5259
-0.1503	0.9175	0.0837	-28.9307	-5.5542	-1.1597
-0.1644	0.9176	0.0731	-26.9775	-4.2725	-0.4883
-0.1659	0.9324	0.0647	-25.2075	-0.9766	-0.1831
-0.1550	0.9457	0.0560	-23.3154	2.8687	-0.8545
-0.1320	0.9474	0.0436	-22.7051	6.5918	-2.1362
-0.1075	0.9503	0.0409	-23.2544	9.0942	-3.6621
-0.0916	0.9545	0.0566	-24.8413	9.8267	-6.0425
-0.0894	0.9565	0.0768	-25.5127	8.4229	-8.2397
-0.0975	0.9478	0.0857	-24.3530	5.0659	-9.5215
-0.0972	0.9388	0.0966	-23.1323	0.7935	-9.3994
-0.0999	0.9403	0.1084	-21.7285	-3.9673	-8.1177
-0.1091	0.9448	0.1158	-18.9819	-8.9111	-6.2866
-0.1292	0.9508	0.1140	-14.9536	-12.8174	-3.9062
-0.1505	0.9525	0.1310	-9.0942	-14.7705	-0.6104
-0.1256	0.9459	0.1083	-3.4180	-14.1602	2.3804
-0.1021	0.9541	0.1105	1.6479	-13.9160	5.2490
-0.1696	0.9937	0.1971	10.0098	-19.4092	8.6670
-0.4080	1.1178	0.4092	29.2969	-29.2969	14.0991
-0.6796	1.2505	0.6754	71.8384	-38.8794	28.7476
-0.8811	1.3789	0.9344	139.7705	-44.0063	55.0537
-0.9087	1.4115	0.8016	229.4922	-40.5273	90.3320
-0.8492	1.5319	1.0980	320.1294	-11.5967	122.2534
-0.9897	1.7208	0.6602	441.8335	28.3813	150.8179
-1.0728	1.8381	0.5449	563.1104	103.8208	181.8237
-0.5863	1.8612	0.4098	683.8989	203.7964	193.6035
-0.1006	2.0177	0.2260	801.0254	274.5972	170.3491
0.2190	2.1188	-0.1924	886.1694	285.7666	130.4321
0.2633	1.7874	-0.5416	897.6440	254.6997	90.8203
0.3999	1.0083	-0.8333	820.5566	226.9287	79.7119
0.8741	-0.1698	-0.7207	640.3198	183.7158	86.4868
0.8223	-1.4023	-0.3170	368.1030	124.1455	84.7778
0.3259	-1.4172	0.3457	96.0693	60.7300	41.6870
0.1948	-0.2561	0.6305	-86.6699	-26.4893	-9.2163
0.2235	0.3467	0.6436	-174.6826	-115.6616	-43.3960
0.1804	0.4768	0.4659	-200.0732	-176.3916	-63.1714
-0.1296	0.5160	0.3646	-200.8667	-211.7310	-67.8101
-0.4041	0.5256	0.3174	-196.0449	-213.9893	-65.6738
-0.6387	0.5134	0.3312	-193.4204	-184.9365	-58.1055
-0.7069	0.4951	0.3750	-190.5518	-124.8779	-43.0908
-0.5483	0.5009	0.4030	-190.4297	-54.6265	-36.6821
-0.3431	0.5126	0.3794	-196.2280	6.4697	-43.6401
-0.1228	0.4951	0.3512	-207.0312	49.9268	-59.8755
0.1260	0.5232	0.3800	-222.6562	64.7583	-75.2563
0.1439	0.6023	0.4290	-234.9854	52.8564	-86.1206
-0.0212	0.6836	0.4341	-239.6240	27.2827	-91.0645
-0.2458	0.7628	0.4741	-239.5630	-0.9155	-87.2192
-0.3848	0.8397	0.5076	-232.6660	-19.9585	-74.3408
-0.4095	0.8956	0.5314	-218.8110	-23.9258	-57.9224
-0.4310	0.9358	0.5781	-202.0874	-19.4092	-41.8701
-0.4370	0.9659	0.5994	-184.9365	-10.6812	-29.9072
-0.3843	0.9961	0.5853	-170.1050	-3.1128	-23.0103
-0.2811	1.0027	0.5439	-159.5459	1.3428	-20.6299
-0.1917	0.9865	0.5063	-154.2358	2.0752	-21.5454
-0.1492	0.9811	0.4672	-153.8086	0.3052	-25.6958
-0.1150	0.9924	0.4585	-156.0669	-2.9297	-33.2642
-0.1075	1.0135	0.4625	-157.4707	-10.6812	-41.5649
-0.1337	1.0326	0.4741	-155.3345	-20.2637	-48.5840
-0.1854	1.0389	0.4564	-148.7427	-29.7241	-51.6968
-0.2351	1.0297	0.4146	-139.5874	-35.5835	-50.1709
-0.2767	1.0150	0.4014	-130.6763	-37.9639	-43.3960
-0.3069	0.9980	0.3899	-121.1548	-36.2549	-33.6304
-0.3250	0.9828	0.3809	-109.9854	-30.0293	-22.2778
-0.3179	0.9746	0.3843	-97.5952	-19.7754	-11.4746
-0.2852	0.9613	0.3641	-84.2285	-7.9346	-2.5024
-0.2321	0.9540	0.3290	-72.2656	3.1128	4.0283
-0.1516	0.9392	0.3016	-62.8662	11.5967	7.6294
-0.0712	0.9219	0.2865	-55.9082	14.5264	7.9346
-0.0160	0.9199	0.2849	-51.8188	11.1084	5.4321
-0.0229	0.9266	0.3033	-49.0112	1.9531	1.6479
-0.0800	0.9440	0.2744	-45.4712	-9.1553	-2.5024
-0.1428	0.9454	0.2393	-41.6870	-17.5781	-5.2490
-0.1682	0.9297	0.2189	-38.6353	-19.2871	-5.8594
-0.1752	0.9224	0.1953	-36.0107	-15.8691	-5.6152
-0.1686	0.9222	0.1721	-34.3018	-10.6201	-4.8828
-0.1644	0.9225	0.1620	-33.8135	-5.6763	-4.1504
-0.1550	0.9219	0.1349	-33.2031	-1.2817	-3.3569
-0.1266	0.9229	0.1182	-33.2642	1.5869	-3.7231
-0.1320	0.9272	0.1140	-34.8511	3.1128	-6.1035
-0.1404	0.9279	0.1058	-36.0107	6.0425	-9.5825
-0.1459	0.9340	0.1008	-37.2925	9.2773	-14.1602
-0.1359	0.9307	0.0989	-38.6963	11.5356	-18.6768
-0.1271	0.9180	0.1118	-39.5508	11.7187	-22.1558
-0.1296	0.9124	0.1152	-39.5508	9.1553	-23.3765
-0.1292	0.9109	0.1125	-39.1235	4.3335	-21.6675
-0.1313	0.9181	0.1133	-39.2456	-0.7935	-18.3105
-0.1377	0.9272	0.1138	-38.9404	-3.8452	-13.8550
-0.1365	0.9370	0.1143	-38.0249	-3.6621	-9.3384
-0.1255	0.9515	0.1187	-36.3770	-1.0986	-6.1035
-0.1129	0.9587	0.1338	-34.4849	0.7324	-4.5776
-0.0972	0.9637	0.1576	-31.5552	1.9531	-3.7231
-0.0693	0.9996	0.2094	-27.5879	2.0752	-2.6855
-0.0928	1.0670	0.2933	-19.8975	1.5259	-1.9531
-0.2736	1.1790	0.4402	-0.4272	-0.3052	1.5259
-0.4983	1.2705	0.5975	37.9639	-1.7090	13.3057
-0.7388	1.3813	1.0035	92.8345	-1.4038	33.3862
-0.7733	1.5286	1.0892	171.6919	3.0518	58.2275
-0.7726	1.6847	1.0365	271.2402	14.4043	90.6372
-0.8109	1.7715	1.0162	379.4556	43.3350	125.6104
-0.7495	1.8168	1.0779	493.1641	86.0596	155.2124
-0.2737	1.9065	1.0024	615.3564	134.7656	166.3818
0.3500	1.9996	0.6566	730.9570	157.0435	144.7144
0.4985	1.8595	0.2192	808.2886	136.5967	99.4873
0.1912	1.5889	0.0192	831.1768	101.3794	56.3965
0.0160	1.3757	-0.0569	803.1616	79.8340	42.1143
0.4806	0.8462	-0.1556	725.4028	71.2280	57.3120
0.7753	-0.0248	-0.2623	592.4072	50.9644	69.1528
0.4287	-0.7610	-0.0410	406.7993	17.0898	71.5332
-0.0081	-0.9099	0.1782	223.6328	-26.3062	48.9502
-0.1195	-0.4862	0.3965	77.3926	-72.8149	9.0332
-0.1487	-0.0220	0.4033	-16.7847	-98.9380	-24.3530
-0.3344	0.2440	0.3821	-63.8428	-108.7646	-42.7246
-0.4019	0.3352	0.3130	-82.9468	-99.1821	-49.7437
-0.4921	0.3464	0.3240	-93.6890	-73.4863	-47.1802
-0.6471	0.3695	0.3715	-95.1538	-34.5459	-34.7900
-0.6335	0.3462	0.4535	-92.6514	7.2021	-23.8647
-0.4912	0.2684	0.5016	-89.4165	48.5229	-21.9116
-0.3184	0.2039	0.5242	-92.6514	79.8950	-25.3906
-0.1633	0.1979	0.5316	-103.9429	95.4590	-30.2124
-0.0953	0.2333	0.5729	-119.2017	93.0176	-33.2031
-0.1028	0.3026	0.6066	-132.5073	79.8950	-31.0059
-0.1351	0.3500	0.6453	-141.5405	63.0493	-24.8413
-0.1729	0.3954	0.6716	-147.1558	47.0581	-17.1509
-0.1790	0.4498	0.6830	-151.9165	33.5693	-8.8501
-0.1262	0.5149	0.6709	-158.5693	25.2686	-4.5776
-0.0991	0.5675	0.6906	-161.9873	20.0806	-6.0425
-0.1478	0.6165	0.7275	-162.2314	10.8032	-10.2539
-0.1990	0.6301	0.7383	-160.1562	2.5024	-15.4419
-0.1975	0.6222	0.7262	-158.2642	-1.0986	-19.6533
-0.1538	0.5825	0.6909	-159.4238	-1.7700	-19.7144
-0.0790	0.5819	0.6384	-163.6353	7.2021	-29.2358
-0.0012	0.6216	0.6034	-172.6074	13.0005	-34.2407
0.0028	0.6600	0.6049	-183.2275	12.0239	-34.5459
-0.0370	0.6993	0.6011	-192.3218	5.3711	-34.2407
-0.0680	0.7507	0.5540	-198.6084	-2.8687	-32.7759
-0.1331	0.8016	0.5770	-200.9277	-9.6436	-29.4800
-0.1929	0.8406	0.6290	-197.1436	-13.3057	-24.5361
-0.2355	0.8605	0.6738	-184.9976	-12.6953	-18.8599
-0.2480	0.8707	0.6949	-167.7856	-10.6201	-13.1836
-0.2271	0.8726	0.6707	-148.8037	-8.4229	-8.1787
-0.1777	0.8713	0.6322	-132.1411	-5.3711	-3.9673
-0.1154	0.8531	0.5856	-118.8354	-3.1738	0.0000
-0.0612	0.8444	0.5677	-109.0088	-3.4790	2.0752
-0.0239	0.8448	0.5433	-102.3560	-8.9111	2.0752
-0.0084	0.8473	0.5197	-98.2056	-18.8599	0.0000
-0.0153	0.8533	0.5137	-96.0083	-30.5786	-2.2583
-0.0551	0.8699	0.4974	-93.8721	-40.7104	-4.6387
-0.1053	0.8868	0.4771	-91.4307	-46.7529	-6.4697
-0.1499	0.9009	0.4651	-88.0737	-48.2178	-7.8125
-0.1755	0.9139	0.4569	-83.6182	-45.4712	-8.5449
-0.1898	0.9271	0.4399	-78.1860	-40.6494	-8.9722
-0.2056	0.9331	0.4230	-72.3267	-33.5693	-9.4604
-0.2168	0.9373	0.3972	-66.7725	-25.2075	-9.5215
-0.2026	0.9263	0.3698	-61.9507	-15.9302	-9.0332
-0.1649	0.9091	0.3564	-59.2041	-7.8125	-8.7280
-0.1313	0.9016	0.3511	-57.9834	-3.6011	-8.8501
-0.1162	0.9019	0.3387	-57.5562	-2.8076	-8.7891
-0.1010	0.8855	0.3182	-56.8848	-4.8218	-9.5215
-0.0950	0.8939	0.3175	-57.7393	-9.6436	-9.9487
-0.0856	0.9181	0.2781	-59.2041	-16.9067	-10.5591
-0.0829	0.9124	0.2391	-61.6455	-24.0479	-11.4136
-0.0909	0.8922	0.2028	-66.4673	-29.4800	-11.5356
-0.1111	0.8842	0.1691	-72.9980	-31.7993	-11.7798
-0.1237	0.8940	0.1493	-81.4819	-30.8228	-12.6953
-0.1443	0.8981	0.1331	-90.3320	-25.9399	-14.7705
-0.1489	0.8947	0.1340	-97.1680	-17.6392	-17.0898
-0.1195	0.8936	0.1361	-102.2339	-8.7280	-20.7520
-0.0782	0.8931	0.1366	-105.2856	-2.5024	-24.5361
-0.0573	0.8972	0.1533	-106.7505	0.3052	-26.9775
-0.0894	0.9076	0.1562	-105.6519	-0.0610	-28.3203
-0.0992	0.9054	0.1920	-102.4780	-0.4883	-28.6255
-0.0569	0.9301	0.2384	-97.7783	-3.1128	-27.1606
-0.0281	0.9668	0.2418	-91.5527	-11.9629	-24.1089
0.0076	1.0006	0.2538	-85.7544	-20.2026	-18.9209
0.0353	1.0309	0.3143	-78.4912	-24.9023	-13.6719
-0.1151	1.1497	0.5063	-63.7207	-29.6021	-8.0566
-0.5205	1.3610	0.7654	-28.9307	-39.1235	3.6621
-0.6221	1.4668	1.0475	29.5410	-49.9878	25.3296
-0.7988	1.6930	1.2937	111.1450	-50.5371	52.2461
-0.9736	1.8523	1.2375	228.3936	-41.9922	89.2944
-0.9072	1.8018	0.9889	360.4126	-2.9907	132.5073
-0.7740	1.7699	0.8682	489.3799	69.2139	163.5742
-0.3250	1.7513	0.8180	613.5864	142.7002	163.8794
0.3010	1.6548	0.5474	720.7031	169.9829	130.5542
0.6791	1.5039	0.1085	785.8887	147.9492	77.9419
0.8951	1.3705	-0.2711	784.6680	91.8579	34.4849
0.5896	0.9705	-0.2954	703.3691	34.7900	30.6396
0.3163	0.1309	-0.2124	561.2183	-1.8311	30.5176
0.2195	-0.2571	-0.1877	378.3569	-19.7754	20.0806
0.0934	-0.2899	-0.1639	185.7300	-35.6445	-1.2817
-0.1610	-0.0730	-0.0110	16.4185	-44.7998	-31.5552
-0.1843	0.2511	0.1261	-101.8677	-45.8984	-58.5938
-0.0364	0.4421	0.1108	-164.4287	-46.2646	-69.5801
-0.2008	0.5164	0.1509	-190.7959	-47.4854	-69.8242
-0.4138	0.5691	0.1371	-198.9746	-44.6167	-63.7817
-0.5227	0.6038	0.2112	-197.3267	-35.1563	-54.7485
-0.5466	0.6354	0.3700	-187.6221	-14.9536	-44.1284
-0.5153	0.6550	0.5032	-168.3350	13.6108	-36.6211
-0.4188	0.6366	0.5789	-145.2637	39.6118	-34.9731
-0.2808	0.5986	0.5961	-126.5259	55.5420	-36.4380
-0.1624	0.5717	0.5895	-116.5771	58.8379	-39.5508
-0.1067	0.5833	0.5731	-115.0513	53.1616	-42.8467
-0.0708	0.5853	0.5481	-119.2017	44.1895	-43.9453
-0.0161	0.6060	0.4993	-126.2817	35.5225	-44.9219
0.0133	0.6475	0.4594	-136.4746	23.9868	-41.9312
-0.0289	0.7144	0.4290	-148.6816	12.0239	-36.3159
-0.0803	0.7920	0.4183	-161.2549	1.0986	-30.7007
-0.1226	0.8563	0.4260	-171.6309	-5.8594	-27.0386
-0.1522	0.9076	0.4186	-177.3682	-6.2866	-23.5596
-0.1489	0.9136	0.4164	-178.7720	-1.6479	-20.5078
-0.1453	0.9158	0.4153	-179.4434	2.6855	-18.5547
-0.1501	0.9257	0.4185	-179.2603	6.1035	-17.0898
-0.1351	0.9314	0.4312	-177.8564	8.9111	-15.9302
-0.1133	0.9396	0.4464	-175.5981	12.0850	-14.8926
-0.0988	0.9467	0.4507	-170.5933	15.3809	-14.5874
-0.0568	0.9453	0.4438	-163.5132	16.9067	-14.5874
0.0048	0.9534	0.4473	-155.5786	13.8550	-14.7705
0.0349	0.9647	0.4792	-145.9351	4.7607	-15.1978
-0.0093	0.9768	0.4794	-132.6294	-8.5449	-14.8315
-0.0886	0.9845	0.4480	-117.9199	-21.2402	-11.9019
-0.1599	0.9875	0.4279	-103.3325	-29.1138	-6.8359
-0.1934	0.9932	0.4008	-88.5620	-29.1748	-1.1597
-0.2000	1.0090	0.3787	-74.0967	-22.7661	4.3335
-0.1796	1.0204	0.3602	-60.3027	-12.4512	8.3618
-0.1305	1.0195	0.3408	-48.4009	-1.9531	10.8643
-0.0780	1.0055	0.3228	-39.0625	4.7607	11.3525
-0.0503	0.9969	0.3052	-32.7759	6.8970	10.1929
-0.0382	0.9952	0.2771	-28.7476	5.5542	8.4229
-0.0356	0.9840	0.2506	-26.9775	2.8076	5.0049
-0.0327	0.9650	0.2382	-26.8555	0.8545	1.0376
-0.0476	0.9568	0.2245	-27.4048	-0.2441	-2.7466
-0.0802	0.9515	0.1930	-28.4424	-0.9155	-5.7373
-0.0859	0.9424	0.1685	-30.2734	-1.0986	-7.5073
-0.0941	0.9287	0.1483	-32.9590	-1.7700	-8.6670
-0.1058	0.9249	0.1365	-36.0718	-1.9531	-9.2163
-0.1066	0.9269	0.1309	-39.2456	-1.5869	-9.3994
-0.1080	0.9264	0.1165	-41.1987	-1.5869	-10.8032
-0.1014	0.9194	0.1012	-43.5181	-1.2817	-10.9253
-0.0973	0.9120	0.0959	-46.6309	-0.8545	-10.6812
-0.0945	0.9099	0.0963	-50.4761	-0.2441	-10.0708
-0.0848	0.9127	0.0894	-54.1992	1.0986	-9.1553
-0.0739	0.9208	0.0807	-57.9224	2.1362	-8.0566
-0.0625	0.9247	0.0802	-61.4624	2.9297	-7.0801
-0.0613	0.9336	0.0822	-64.6973	3.9062	-6.5308
-0.0594	0.9349	0.0822	-66.0400	5.0049	-6.3477
-0.0460	0.9331	0.0913	-66.2842	5.3711	-6.7749
-0.0487	0.9365	0.0975	-65.1245	4.4556	-6.7749
-0.0430	0.9409	0.1071	-62.5000	2.3804	-5.7983
-0.0385	0.9498	0.1189	-59.2041	-0.3662	-4.2114
-0.0500	0.9716	0.1382	-54.2603	-3.4180	-1.9531
-0.0016	1.0104	0.1543	-47.4243	-4.0894	0.1221
0.0128	1.0902	0.2616	-37.1094	-4.5776	0.3052
-0.1494	1.1702	0.4285	-15.9912	-3.9062	3.1128
-0.4802	1.3286	0.8087	22.5220	-1.7090	14.3433
-0.8638	1.5598	1.1428	88.2568	-5.3101	35.4004
-0.8376	1.6279	1.0940	182.4341	-0.6104	64.0259
-0.5615	1.7030	1.3632	288.5132	29.4800	89.4165
-0.7190	1.8119	0.8085	427.3682	63.4155	107.8491
-0.7008	1.6862	0.5543	552.5513	122.9248	119.6899
-0.1693	1.5811	0.4431	654.3579	198.4253	108.9478
0.4280	1.5601	0.2402	737.7930	249.6948	69.6411
0.6742	1.5234	-0.1066	785.2783	241.3940	20.3247
1.1495	1.1847	-0.5697	771.8506	179.4434	-10.8032
1.3567	0.5068	-0.6266	666.3208	70.4956	-23.5596
0.7665	-0.1686	-0.5188	480.8960	-31.3110	-26.8555
-0.0271	-0.4767	-0.1970	245.4834	-94.0552	-22.9492
-0.2958	-0.2489	0.1891	27.4048	-106.8115	-23.3765
-0.2312	0.3008	0.2971	-117.4927	-91.7358	-40.7715
-0.1095	0.5293	0.1743	-194.2749	-74.4019	-54.5654
-0.1466	0.5480	0.0225	-228.1494	-62.9883	-63.7817
-0.2955	0.5900	-0.0272	-244.6289	-65.0024	-70.8008
-0.3927	0.6583	0.0020	-254.2114	-65.3076	-71.4111
-0.4143	0.6814	0.0560	-256.7139	-50.1709	-64.5752
-0.3918	0.6910	0.1074	-253.4790	-22.2778	-54.5044
-0.3014	0.7051	0.1593	-249.0845	3.4790	-45.7764
-0.2021	0.7150	0.2584	-245.2393	17.5781	-39.3066
-0.1478	0.7290	0.3350	-240.1733	18.0054	-34.7900
-0.1495	0.7684	0.3824	-233.8257	8.9722	-31.7383
-0.1447	0.8176	0.4286	-228.0273	-3.7842	-29.4800
-0.1372	0.8967	0.4657	-223.5107	-14.5874	-27.4658
-0.1274	0.9667	0.4865	-216.0034	-22.2778	-25.4517
-0.1237	1.0078	0.4758	-204.6509	-27.7710	-23.3765
-0.1155	1.0344	0.4431	-191.7725	-33.0200	-21.2402
-0.1122	1.0684	0.4335	-180.7251	-38.5132	-18.4937
-0.1301	1.1072	0.4314	-169.9829	-41.8701	-15.4419
-0.1621	1.1459	0.4287	-157.5317	-40.2832	-11.9629
-0.1702	1.1605	0.4269	-144.2871	-34.7290	-9.1553
-0.1648	1.1616	0.4299	-131.3477	-26.9165	-6.4087
-0.1593	1.1523	0.4335	-118.5303	-17.4561	-3.2349
-0.1344	1.1388	0.4298	-105.4688	-7.9346	0.3052
-0.0997	1.1154	0.4258	-92.5903	-1.2817	3.7842
-0.0713	1.0929	0.4147	-80.6274	2.1973	6.4087
-0.0691	1.0676	0.3850	-69.0918	2.3804	9.0332
-0.0642	1.0339	0.3505	-58.4106	0.2441	11.8408
-0.0569	1.0000	0.3280	-49.4995	-3.4790	13.6108
-0.0724	0.9763	0.3031	-40.5884	-8.2397	15.5640
-0.1097	0.9655	0.2740	-32.5928	-11.9019	18.1885
-0.1356	0.9467	0.2469	-24.9634	-13.9160	20.7520
-0.1494	0.9292	0.2046	-17.8223	-13.7939	22.5220
-0.1415	0.9244	0.1635	-13.3057	-10.6812	23.1934
-0.1182	0.9136	0.1421	-10.9253	-6.6528	22.1558
-0.0995	0.9063	0.1359	-11.1694	-4.0894	19.5313
-0.0983	0.9095	0.1389	-12.2681	-3.1738	16.1133
-0.1145	0.9188	0.1311	-12.6953	-3.4790	13.0615
-0.1305	0.9257	0.1293	-12.9395	-4.1504	9.9487
-0.1316	0.9314	0.1357	-13.7329	-4.0894	7.0190
-0.1326	0.9404	0.1454	-14.2212	-3.1128	4.6387
-0.1434	0.9504	0.1512	-13.5498	-1.4038	3.2349
-0.1490	0.9510	0.1436	-12.2681	0.9766	2.8076
-0.1273	0.9421	0.1340	-11.6577	2.3193	3.2959
-0.1135	0.9303	0.1429	-11.9019	1.6479	3.7231
-0.1185	0.9280	0.1509	-11.8408	-0.3662	4.3335
-0.1405	0.9366	0.1421	-10.7422	-3.2349	5.3101
-0.1539	0.9392	0.1316	-9.4604	-5.1270	6.5918
-0.1610	0.9255	0.1281	-8.3008	-5.6152	7.6294
-0.1600	0.9135	0.1176	-7.4463	-3.7842	8.9722
-0.1354	0.9066	0.1031	-7.5684	-0.9155	10.8032
-0.1047	0.8962	0.0919	-10.1929	0.9155	11.3525
-0.0771	0.8763	0.0880	-14.4043	1.8921	11.1084
-0.0731	0.8679	0.0857	-19.7144	1.2817	10.8032
-0.0770	0.8632	0.0767	-25.2075	-0.7324	9.7046
-0.0896	0.8627	0.0660	-30.8838	-3.4790	8.2397
-0.1090	0.8599	0.0549	-36.4380	-4.6997	6.5308
-0.1244	0.8501	0.0260	-41.5039	-3.8452	4.7607
-0.1299	0.8342	0.0134	-46.8140	-2.0752	2.9297
-0.1204	0.8347	0.0000	-52.5513	-0.4883	1.0986
-0.1096	0.8491	-0.0001	-59.8145	-0.4883	-1.5259
-0.1152	0.8698	0.0109	-66.7725	-0.7935	-4.3945
-0.1080	0.8949	0.0190	-72.5708	0.1831	-6.4087
-0.0624	0.9266	0.0493	-77.8198	0.6104	-8.5449
-0.0099	0.9943	0.1051	-82.0923	-1.2207	-11.8408
0.0281	1.0856	0.2314	-81.5430	-1.5259	-14.7705
-0.1534	1.2788	0.5106	-65.4907	0.9766	-11.3525
-0.4724	1.4574	0.7928	-23.1934	-1.2817	2.8076
-0.9125	1.6708	1.1914	41.3818	-22.0947	28.4424
-1.1774	1.8718	1.7083	137.1460	-41.3818	67.5049
-1.1235	1.9590	1.3423	288.6963	-28.1982	113.5864
-1.1373	1.9990	0.9844	456.2378	26.9775	159.3018
-1.0195	2.0884	0.9093	608.9478	123.5352	177.1240
-0.1104	2.1691	0.6084	754.8828	228.6987	145.0195
0.5713	2.0245	0.1006	863.8306	261.9019	79.7729
0.4302	1.8190	-0.2321	902.0386	224.9146	18.5547
0.4053	1.6075	-0.3408	864.8071	166.0767	-4.9438
0.8593	0.8488	-0.2809	759.9487	109.3140	-3.4180
0.9679	-0.1721	-0.3309	603.3325	48.4009	5.9814
0.3743	-0.6071	-0.2078	392.1509	-36.4380	15.0757
-0.0530	-0.5236	-0.0255	174.9878	-106.1401	3.7231
-0.1466	-0.0370	-0.0054	10.0708	-135.5591	-24.7803
-0.2056	0.3345	0.0494	-89.9048	-141.9678	-49.8047
-0.3630	0.5403	-0.0137	-132.5684	-132.7515	-61.5845
-0.6416	0.6071	0.0703	-142.9443	-114.0137	-58.5327
-0.8330	0.6075	0.2133	-138.7329	-83.4961	-41.9922
-0.7280	0.5573	0.3127	-125.3662	-39.4897	-24.2310
-0.5320	0.4792	0.3804	-110.5347	3.7842	-13.9771
-0.3892	0.3962	0.4088	-103.2715	34.5459	-11.0474
-0.2710	0.3264	0.4199	-109.0698	49.3164	-12.1460
-0.1853	0.3081	0.4315	-126.6479	51.4526	-14.2822
-0.1285	0.3389	0.4165	-150.8179	47.4243	-16.8457
-0.0922	0.4078	0.3962	-177.6123	41.7480	-21.5454
-0.0989	0.5134	0.3799	-202.3315	37.5366	-28.5645
-0.1165	0.6382	0.3916	-221.4355	34.4849	-37.2925
-0.1426	0.7411	0.4023	-231.5674	32.1045	-47.0581
-0.1852	0.7809	0.4023	-234.0088	31.0059	-52.4292
-0.2244	0.8175	0.4126	-231.3843	34.7900	-56.2134
-0.2054	0.8622	0.4342	-227.6001	37.1704	-55.1758
-0.1654	0.8868	0.4681	-222.6562	39.9780	-51.6357
-0.1141	0.9003	0.4855	-218.0786	40.5884	-47.5464
-0.0403	0.8877	0.4836	-212.8296	35.8887	-45.8374
-0.0021	0.8795	0.4695	-209.5337	26.6724	-44.6167
-0.0067	0.8995	0.4558	-208.0078	17.7002	-42.7246
-0.0094	0.9297	0.4403	-207.5195	10.1929	-41.1987
-0.0225	0.9473	0.4230	-206.6040	3.3569	-40.1611
-0.0582	0.9783	0.4183	-204.6509	-1.1597	-38.0859
-0.0908	1.0157	0.4216	-199.4019	-4.0894	-33.2642
-0.0778	1.0256	0.4331	-189.4531	-6.0425	-28.1982
-0.0671	1.0277	0.4506	-176.0864	-8.5449	-24.1699
-0.0973	1.0421	0.4287	-159.4849	-12.3291	-19.8364
-0.1246	1.0437	0.4230	-141.4795	-16.4185	-14.8315
-0.1354	1.0465	0.4125	-124.6338	-19.8364	-9.6436
-0.1448	1.0546	0.3973	-107.6660	-20.2026	-5.0659
-0.1421	1.0702	0.3799	-91.7358	-16.1133	-0.5493
-0.1208	1.0712	0.3586	-77.2095	-9.8267	3.0518
-0.0909	1.0652	0.3340	-64.9414	-3.7231	4.9438
-0.0619	1.0500	0.2976	-55.4810	0.9155	4.5776
-0.0490	1.0338	0.2653	-48.5229	4.0894	2.3804
-0.0493	1.0193	0.2260	-43.3960	6.1646	-0.3052
-0.0355	0.9938	0.1992	-40.4663	6.4697	-3.1128
-0.0253	0.9834	0.1947	-39.1846	4.0283	-6.4697
-0.0504	0.9880	0.1754	-38.3301	-0.2441	-8.9111
-0.0793	0.9952	0.1560	-37.9028	-3.9062	-10.3760
-0.1033	0.9912	0.1418	-37.6587	-6.6528	-10.4980
-0.1182	0.9828	0.1230	-36.6211	-7.5073	-10.1929
-0.1118	0.9734	0.1030	-36.5601	-7.3853	-9.0332
-0.1095	0.9597	0.0833	-37.7808	-7.7515	-7.2021
-0.1083	0.9535	0.0670	-39.8560	-8.1787	-5.1880
-0.1102	0.9515	0.0526	-42.7856	-8.6670	-3.4790
-0.0942	0.9352	0.0376	-45.6543	-8.9111	-1.6479
-0.0814	0.9275	0.0228	-49.4385	-9.3994	-0.1221
-0.0753	0.9248	0.0200	-53.9551	-10.9253	0.8545
-0.0824	0.9260	0.0259	-58.0444	-12.5732	1.2207
-0.0793	0.9330	0.0308	-61.0962	-13.5498	1.7090
-0.0485	0.9521	0.0493	-62.6221	-14.3433	1.8921
0.0002	1.0056	0.1090	-63.1714	-16.4185	1.5259
0.0112	1.0900	0.2457	-58.9600	-18.4326	1.7090
-0.1660	1.2509	0.5037	-40.1611	-18.1885	6.2256
-0.5449	1.4861	0.8489	1.5259	-22.4609	21.4233
-0.8401	1.7059	1.1573	69.5801	-36.1328	47.5464
-1.0416	1.8153	1.3179	164.8560	-43.7012	83.1299
-0.9229	1.9341	1.4082	284.3628	-22.1558	125.3052
-1.0001	2.0261	0.9064	437.4390	14.7095	159.7900
-0.9825	2.0634	0.8113	578.4912	88.9893	191.9556
-0.5438	2.0847	0.7827	720.8862	190.9180	188.5376
0.3721	2.1929	0.5330	860.6567	263.7939	138.7939
0.8492	2.2218	-0.1505	959.1064	243.1641	70.8008
0.9462	1.8469	-0.7018	966.9800	154.9683	19.3481
0.7397	0.7941	-0.7451	850.1587	56.3965	16.1133
0.3370	-0.6693	-0.5621	629.0283	6.5918	40.5884
0.1473	-1.1531	-0.1332	343.0786	-9.6436	53.9551
0.2343	-0.6799	0.1721	92.9565	-33.0200	14.7705
0.1986	0.0771	0.2126	-61.4624	-70.6787	-32.4707
0.0104	0.3964	0.0781	-129.4556	-113.4644	-63.1714
-0.2457	0.5084	0.0095	-145.6299	-142.7612	-67.8711
-0.6494	0.6022	0.0533	-139.0991	-141.0522	-51.1475
-0.8523	0.5414	0.0895	-123.0469	-104.9805	-26.8555
-0.7412	0.4333	0.2229	-107.9102	-50.9033	-5.1270
-0.5223	0.3801	0.3242	-95.3979	3.7842	8.6670
-0.2830	0.3256	0.4226	-89.4775	42.9077	14.0991
-0.0804	0.2699	0.5077	-92.0410	57.4951	10.2539
0.0212	0.2515	0.5685	-99.7925	48.8892	0.3052
-0.0023	0.2855	0.6124	-111.8774	26.6113	-10.9863
-0.0634	0.3490	0.6384	-125.8545	4.3945	-21.3623
-0.1456	0.4415	0.6611	-138.7939	-9.8267	-29.7852
-0.2429	0.5338	0.6738	-146.5454	-15.0757	-34.9731
-0.3218	0.6157	0.6710	-149.1089	-12.2070	-35.6445
-0.3292	0.6855	0.6548	-147.9492	-3.4790	-31.5552
-0.2844	0.7413	0.6244	-145.1416	8.0566	-24.9634
-0.2815	0.7489	0.6345	-141.3574	19.2261	-19.1650
-0.2682	0.7830	0.6555	-136.6577	29.1138	-17.2729
-0.2219	0.7997	0.6548	-132.8125	31.7993	-11.7798
-0.1608	0.7684	0.6393	-130.6152	29.9072	-7.5684
-0.1112	0.7295	0.6071	-132.2632	23.3765	-6.7749
-0.0745	0.7072	0.5894	-137.6953	14.0991	-9.3384
-0.0464	0.7106	0.5703	-144.8975	4.5166	-13.8550
-0.0374	0.7317	0.5510	-153.2593	-4.5166	-18.7988
-0.0574	0.7637	0.5193	-161.0107	-13.7329	-22.7051
-0.1063	0.8060	0.4867	-166.4429	-23.1934	-24.9023
-0.1600	0.8372	0.4762	-168.6401	-30.7007	-24.7192
-0.2097	0.8584	0.4502	-166.5649	-34.9731	-23.1934
-0.2428	0.8629	0.4237	-162.2314	-36.4380	-20.7520
-0.2563	0.8752	0.4031	-156.7383	-35.0342	-17.7002
-0.2581	0.8888	0.3918	-149.9023	-32.1655	-15.2588
-0.2542	0.9034	0.3939	-142.4561	-28.7476	-13.7329
-0.2418	0.9111	0.3926	-134.6436	-24.0479	-12.8784
-0.2168	0.9093	0.3931	-127.4414	-18.6157	-11.5356
-0.1747	0.9117	0.3853	-122.1313	-14.0991	-10.3760
-0.1359	0.9205	0.3712	-117.9810	-11.9629	-10.6812
-0.1190	0.9299	0.3608	-114.5020	-11.6577	-12.0850
-0.1157	0.9447	0.3394	-110.7788	-11.8408	-13.7329
-0.1023	0.9606	0.3268	-107.2388	-12.5732	-16.2964
-0.0969	0.9734	0.3208	-104.0039	-14.9536	-19.7754
-0.1244	0.9880	0.3141	-99.4263	-17.5171	-23.0713
-0.1499	1.0001	0.2924	-93.6279	-18.3716	-25.3296
-0.1566	0.9939	0.2618	-87.4634	-18.6768	-27.2827
-0.1692	0.9845	0.2312	-82.7637	-18.7378	-27.8931
-0.1746	0.9769	0.2078	-78.9795	-16.3574	-27.8931
-0.1707	0.9724	0.1748	-76.8433	-11.9629	-27.7100
-0.1493	0.9728	0.1509	-76.1719	-6.2256	-26.9775
-0.1344	0.9679	0.1331	-76.4771	-0.7935	-26.2451
-0.1227	0.9623	0.1260	-77.6978	3.5400	-25.2075
-0.0992	0.9608	0.1274	-79.4067	5.7983	-23.5596
-0.0739	0.9658	0.1310	-81.4209	4.0894	-21.6064
-0.0530	0.9797	0.1309	-82.5806	-1.1597	-20.0806
-0.0206	1.0027	0.1558	-82.6416	-9.6436	-18.8599
-0.0502	1.0583	0.2200	-80.3223	-21.6675	-17.7612
-0.1619	1.1598	0.3569	-70.8618	-31.3721	-14.0381
-0.4739	1.3300	0.6481	-44.6777	-34.9731	-3.6621
-0.8337	1.5110	0.8800	5.7983	-35.4004	20.4468
-0.9187	1.6490	1.3308	72.8149	-34.0576	56.2134
-0.8492	1.7473	1.1469	170.1050	-32.1045	91.9189
-0.9591	1.8347	1.0505	284.9121	-19.4702	132.0801
-0.8798	1.8348	0.9120	396.6064	12.5122	179.3823
-0.6118	1.8572	0.7694	508.2397	68.0542	211.5479
-0.0565	1.7689	0.6372	620.6665	122.9858	206.9702
0.2953	1.6609	0.5204	720.1538	132.4463	157.0435
0.1240	1.7416	0.2473	794.5557	102.6001	95.7031
0.0033	1.7115	0.0021	827.9419	73.1201	67.3218
0.3097	1.4917	-0.2100	803.4668	53.5889	71.8384
0.5975	0.6051	-0.3517	704.3457	26.5503	68.9697
0.5160	-0.5165	-0.3263	540.2222	-7.3853	49.4995
0.1423	-0.9066	-0.0634	335.5103	-55.2368	38.0859
-0.0924	-0.6643	0.1117	147.8271	-86.6089	15.3198
-0.0648	-0.3590	0.1365	10.7422	-91.0645	-16.1133
-0.0466	-0.0198	0.1444	-79.0405	-84.1675	-39.7339
-0.1567	0.3124	0.1447	-127.1973	-78.3691	-53.9551
-0.3979	0.4669	0.1571	-144.6533	-66.3452	-59.5093
-0.6443	0.5319	0.2262	-148.8037	-46.7529	-52.1851
-0.6550	0.5245	0.3503	-144.7754	-14.8315	-34.7900
-0.5043	0.4589	0.4275	-133.4839	22.2778	-17.2119
-0.3446	0.3771	0.5054	-122.5586	47.6074	-7.4463
-0.2832	0.3253	0.5746	-116.5771	54.6265	-7.9956
-0.2565	0.3119	0.6149	-116.6992	49.2554	-14.1602
-0.2385	0.3202	0.6169	-122.0093	42.1753	-20.4468
-0.2148	0.3508	0.6075	-132.3242	38.5132	-26.3672
-0.2391	0.4082	0.6058	-146.4233	40.1611	-34.4238
-0.2992	0.4858	0.5991	-160.2783	45.4102	-42.7246
-0.3667	0.5911	0.6091	-171.0815	52.9175	-47.8516
-0.3779	0.6520	0.5959	-177.0630	62.8662	-47.3022
-0.3015	0.7039	0.5870	-179.8706	71.8384	-41.6870
-0.1925	0.6880	0.5667	-181.7627	73.4863	-34.9121
-0.1346	0.7349	0.5612	-181.9458	72.1436	-39.1846
-0.0996	0.7987	0.5663	-184.5093	59.4482	-36.3770
-0.0872	0.8007	0.5804	-186.9507	41.0767	-30.6396
-0.0774	0.7688	0.5760	-188.5376	20.2637	-28.9307
-0.0769	0.7618	0.5798	-189.5142	-0.3662	-29.7852
-0.0936	0.7964	0.5648	-190.2466	-17.0288	-31.5552
-0.1255	0.8363	0.5488	-190.1245	-30.4565	-32.9590
-0.1802	0.8722	0.5236	-189.6973	-39.2456	-33.2031
-0.2504	0.9050	0.5042	-187.0728	-41.2598	-31.1279
-0.2843	0.9290	0.4872	-181.0913	-36.0718	-27.0386
-0.2795	0.9365	0.4740	-172.1802	-26.9165	-22.9492
-0.2499	0.9344	0.4625	-161.6821	-18.7378	-19.8364
-0.2187	0.9393	0.4581	-149.9023	-14.2212	-16.8457
-0.1937	0.9556	0.4680	-137.2070	-14.2822	-14.5874
-0.1902	0.9626	0.4661	-124.3286	-18.0054	-12.6343
-0.1886	0.9673	0.4714	-111.0840	-21.4844	-9.9487
-0.1945	0.9651	0.4618	-98.2056	-25.0854	-6.4087
-0.2013	0.9587	0.4412	-87.1582	-27.7100	-2.6245
-0.1943	0.9548	0.4204	-77.6978	-28.5645	1.5869
-0.1816	0.9595	0.4109	-69.8242	-27.4658	4.3945
-0.1743	0.9644	0.3877	-62.8662	-24.9634	5.7373
-0.1722	0.9685	0.3601	-56.7627	-21.9727	5.7373
-0.1750	0.9692	0.3389	-51.5137	-18.9209	5.0049
-0.1680	0.9568	0.3035	-47.0581	-15.8081	3.2959
-0.1592	0.9437	0.2694	-44.2505	-13.0615	0.2441
-0.1520	0.9265	0.2428	-42.1753	-10.0708	-3.4180
-0.1477	0.9224	0.2323	-40.6494	-7.5684	-7.6294
-0.1483	0.9200	0.2235	-39.7339	-5.8594	-11.5967
-0.1566	0.9193	0.2177	-39.0625	-5.0049	-14.4043
-0.1630	0.9207	0.2161	-38.8184	-4.0894	-16.7236
-0.1616	0.9160	0.2134	-38.5742	-2.9907	-17.7002
-0.1586	0.9150	0.2134	-38.3301	-2.3193	-18.1274
-0.1638	0.9153	0.2086	-37.4146	-1.4038	-18.0054
-0.1626	0.9042	0.1946	-36.5601	-0.4883	-17.4561
-0.1685	0.8981	0.1774	-36.1328	0.4272	-16.2964
-0.1671	0.8994	0.1631	-35.9497	1.7700	-14.7705
-0.1580	0.9045	0.1492	-36.0718	2.6245	-14.2212
-0.1488	0.9049	0.1366	-36.6211	2.1362	-14.5264
-0.1462	0.9012	0.1320	-37.4146	1.4038	-14.7095
-0.1472	0.9001	0.1252	-38.1470	0.4883	-14.7705
-0.1562	0.9011	0.1155	-39.3677	-0.5493	-14.8926
-0.1600	0.8965	0.1058	-40.8325	-1.1597	-13.8550
-0.1547	0.8877	0.0941	-43.2739	-1.4038	-11.9019
-0.1490	0.8938	0.0869	-46.0815	-1.2817	-9.2163
-0.1274	0.9166	0.1028	-49.1943	-2.1973	-6.7139
-0.1296	0.9595	0.1619	-50.9644	-5.0659	-5.9814
-0.2308	1.0463	0.3241	-46.7529	-7.9346	-5.0659
-0.4716	1.1794	0.5459	-27.2827	-9.8877	0.7324
-0.7875	1.3427	0.8702	11.3525	-9.7656	17.8223
-0.9612	1.5551	1.0685	71.8384	-8.3008	49.0723
-0.8523	1.7395	1.0574	160.1562	-2.5635	87.1582
-0.8600	1.8636	0.9388	267.5171	10.1318	126.5869
-0.7915	1.7495	0.8273	371.9482	27.4048	163.6963
-0.4906	1.6943	0.8356	467.1021	57.9834	191.2842
0.0177	1.6553	0.7377	560.9741	81.1157	189.9414
0.3370	1.5571	0.5555	640.6250	73.7915	152.8320
0.2386	1.5144	0.2985	693.7256	43.7012	101.3184
0.1221	1.4121	-0.0403	708.9233	19.6533	59.3872
-0.1852	0.9757	-0.2936	665.2832	18.1274	34.6680
-0.5851	0.3290	-0.3619	549.0112	63.4766	33.2031
-0.4327	-0.3273	-0.1929	378.9673	141.4185	43.9453
0.1346	-0.5004	0.0616	205.3223	201.6602	34.4849
0.6174	-0.1952	0.1980	64.6362	195.0684	2.3193
0.6146	0.0913	0.2793	-35.8887	122.3145	-25.2686
0.3827	0.2113	0.2316	-99.1821	17.3950	-39.3066
0.0825	0.3036	0.1617	-136.9629	-76.5381	-38.2080
-0.2124	0.3560	0.1084	-162.4756	-130.1270	-29.1138
-0.4253	0.3925	0.1312	-185.1196	-135.0098	-18.1274
-0.4647	0.4271	0.1605	-204.2847	-107.1777	-9.4604
-0.3693	0.4497	0.1702	-220.5811	-68.6646	-8.3618
-0.2880	0.4790	0.1997	-237.5488	-33.4473	-15.1978
-0.1729	0.5065	0.2469	-253.9062	-8.1787	-26.4282
-0.0497	0.5574	0.2660	-267.0898	5.2490	-41.6870
0.0126	0.6425	0.3198	-275.8179	8.9722	-59.0210
-0.0247	0.7152	0.3357	-277.8931	2.8076	-72.8149
-0.1410	0.7808	0.3352	-274.4751	-1.7090	-84.2896
-0.2461	0.8707	0.3922	-267.6392	-4.8218	-89.4775
-0.3020	0.9261	0.4277	-254.0283	1.4038	-83.9844
-0.2932	0.9513	0.4539	-235.6567	14.4653	-74.1577
-0.2184	0.9694	0.4772	-218.3838	24.1089	-65.3076
-0.1411	0.9989	0.5123	-201.9043	24.9634	-58.8379
-0.1173	1.0398	0.5286	-185.1196	19.2871	-54.8706
-0.1284	1.0675	0.5421	-168.5181	10.9863	-50.6592
-0.1440	1.0861	0.5402	-152.9541	4.2725	-44.6777
-0.1454	1.0918	0.5209	-137.8784	0.3662	-38.1470
-0.1434	1.0959	0.4934	-124.0845	-1.8921	-32.2876
-0.1447	1.0970	0.4722	-111.9385	-3.2959	-27.2217
-0.1478	1.0854	0.4469	-100.2197	-3.5400	-22.9492
-0.1527	1.0771	0.4218	-89.1724	-2.5635	-18.7988
-0.1548	1.0692	0.3973	-78.1250	-0.8545	-14.8315
-0.1393	1.0552	0.3728	-67.1997	0.7935	-12.2681
-0.1315	1.0431	0.3542	-56.8848	1.9531	-10.6201
-0.1268	1.0293	0.3331	-47.1191	2.3193	-9.3994
-0.1246	1.0194	0.3038	-37.8418	1.3428	-8.0566
-0.1312	1.0054	0.2744	-30.5176	-0.6104	-6.5308
-0.1322	0.9880	0.2385	-26.0010	-2.0142	-4.3945
-0.1178	0.9572	0.2079	-24.0479	-3.4790	-1.4648
-0.1113	0.9355	0.1830	-25.2075	-4.8828	1.0986
-0.1063	0.9192	0.1633	-27.8320	-6.1646	2.8076
-0.1031	0.9091	0.1438	-31.6162	-7.8125	3.3569
-0.1179	0.9056	0.1260	-35.4004	-9.4604	2.6245
-0.1322	0.9071	0.1119	-37.9639	-10.3760	1.2817
-0.1371	0.9053	0.1049	-40.1001	-9.5215	-0.7324
-0.1359	0.8955	0.1014	-41.6870	-7.4463	-2.3193
-0.1318	0.8872	0.0996	-43.3960	-4.7607	-3.9673
-0.1127	0.8834	0.0956	-45.3491	-2.1973	-4.8218
-0.0862	0.8850	0.0978	-47.6074	-1.4038	-5.1880
-0.0686	0.8895	0.0988	-49.8047	-2.4414	-5.9204
-0.0632	0.8979	0.1010	-52.4292	-4.3335	-6.2866
-0.0695	0.9066	0.1024	-54.1382	-5.0049	-6.8359
-0.0645	0.9180	0.1079	-55.1147	-4.5776	-7.3853
-0.0503	0.9413	0.1134	-55.3589	-4.2725	-8.2397
-0.0244	0.9780	0.1481	-54.5654	-4.6387	-10.2539
0.0107	1.0095	0.2325	-51.0864	-4.5166	-14.4653
-0.0797	1.1165	0.4058	-40.5273	-3.7842	-17.7612
-0.4706	1.3478	0.7421	-13.9160	-1.8311	-14.8315
-0.7490	1.5457	0.9685	39.1235	5.0659	0.8545
-0.7378	1.7217	1.1825	117.7979	16.7847	23.9868
-0.5645	1.9186	1.3345	215.5762	29.4189	47.2412
-0.6738	1.9833	1.1725	336.1816	35.0952	70.7397
-0.7124	1.9016	0.8859	458.9844	50.9033	96.6187
-0.5151	1.8217	0.7197	570.9839	95.8252	113.9526
0.0215	1.6923	0.6211	665.9546	145.2026	104.4312
0.4071	1.6183	0.4144	738.9526	157.3486	61.0352
0.5106	1.5835	0.0446	779.4189	128.6621	7.8735
0.6105	1.2728	-0.2214	764.4043	79.4067	-27.4048
0.2377	0.6460	-0.2212	681.9458	33.6914	-33.5083
0.0598	0.0597	-0.1500	539.6118	23.9868	-16.6626
0.2802	-0.3687	-0.0448	361.9995	33.7524	1.8311
0.3373	-0.4143	0.1647	184.6924	30.0293	0.6714
0.3339	-0.1479	0.2836	44.4336	-4.2114	-17.0898
0.2031	0.0870	0.2472	-48.7671	-60.5469	-27.7100
-0.0748	0.2242	0.1714	-101.0742	-121.0327	-24.1699
-0.2428	0.3026	0.1044	-130.1270	-159.5459	-14.7095
-0.3224	0.3585	0.0679	-150.7568	-167.1143	-4.9438
-0.3728	0.4069	0.1108	-165.0391	-151.2451	1.5869
-0.4304	0.4580	0.1722	-171.7529	-125.6104	3.6011
-0.4515	0.4800	0.2654	-173.3398	-98.4497	-0.8545
-0.4669	0.4972	0.3687	-171.8140	-69.8853	-12.6953
-0.4812	0.5382	0.4822	-166.2598	-37.4146	-27.1606
-0.4514	0.5743	0.5450	-154.6021	0.6104	-39.1846
-0.3804	0.5729	0.5472	-140.5640	42.4805	-49.1943
-0.2998	0.5846	0.5458	-130.7983	80.6885	-57.8613
-0.1837	0.6074	0.5394	-125.9766	107.6660	-64.2700
-0.0300	0.6252	0.5737	-125.3662	119.4458	-67.5659
0.0355	0.6646	0.6075	-125.9155	116.6992	-67.0166
0.0347	0.6843	0.6249	-124.8779	102.6001	-62.4390
0.0542	0.6915	0.6230	-123.2300	81.4819	-54.8096
0.0786	0.7202	0.6338	-121.5210	57.6782	-45.2881
0.0630	0.7915	0.6445	-120.9106	32.4097	-35.3394
0.0269	0.8002	0.6573	-120.0562	6.3477	-23.0103
-0.0172	0.8015	0.6292	-118.6523	-11.5356	-18.9209
-0.0433	0.8551	0.6079	-119.5068	-25.3296	-13.1836
-0.0660	0.8979	0.6058	-122.5586	-32.9590	-5.0659
-0.1055	0.8828	0.5809	-124.3896	-32.7759	-0.8545
-0.1300	0.8586	0.5679	-125.6714	-27.2827	-0.8545
-0.1305	0.8534	0.5591	-125.8545	-20.3857	-4.0894
-0.1123	0.8627	0.5437	-124.5117	-13.4888	-9.2773
-0.1022	0.8636	0.5090	-119.8730	-6.4087	-13.9160
-0.0950	0.8630	0.5079	-114.6240	-1.4038	-15.7471
-0.0701	0.8635	0.4993	-108.5205	-0.1831	-14.8926
-0.0417	0.8695	0.5004	-102.7832	-2.6245	-12.6953
-0.0264	0.8859	0.5083	-97.5952	-9.3994	-10.0098
-0.0459	0.9012	0.5161	-91.6138	-16.5405	-6.4697
-0.0710	0.9021	0.5162	-84.6558	-21.6675	-2.8687
-0.0869	0.8953	0.5093	-78.1250	-25.2686	1.8311
-0.0952	0.8954	0.4868	-72.4487	-27.4048	6.7749
-0.1025	0.8972	0.4635	-67.5049	-28.6255	10.8032
-0.1150	0.8945	0.4347	-63.4766	-28.2593	13.7329
-0.1245	0.8984	0.4120	-59.9365	-25.5127	14.8926
-0.1218	0.8966	0.3887	-56.9458	-22.0337	14.4043
-0.1108	0.8895	0.3879	-54.1992	-18.7988	12.5122
-0.1073	0.8884	0.3799	-50.7813	-16.2964	10.0708
-0.1112	0.8901	0.3690	-46.9971	-14.9536	7.1411
-0.1190	0.8903	0.3578	-43.3350	-14.2822	4.2114
-0.1313	0.8931	0.3488	-39.7949	-12.6953	2.2583
-0.1274	0.8967	0.3472	-36.6821	-10.4370	1.4038
-0.1207	0.8962	0.3379	-34.1187	-8.1787	0.7324
-0.1169	0.9020	0.3315	-32.5317	-6.0425	0.1221
-0.1108	0.9030	0.3218	-31.2500	-4.2114	-0.2441
-0.0957	0.9012	0.3127	-30.3955	-3.3569	-0.9766
-0.0879	0.8945	0.3021	-30.1514	-3.4180	-2.1362
-0.0861	0.8907	0.2886	-30.4565	-4.6997	-3.0518
-0.0956	0.8829	0.2675	-30.8228	-6.4087	-3.7231
-0.0941	0.8748	0.2526	-32.4707	-7.5684	-3.7842
-0.0845	0.8749	0.2393	-35.0342	-8.8501	-3.7231
-0.0702	0.8704	0.2084	-38.7573	-10.3760	-3.4790
-0.0648	0.8661	0.1821	-44.0063	-12.6953	-3.6621
-0.0658	0.8643	0.1644	-51.5137	-14.8926	-4.3335
-0.0731	0.8739	0.1509	-59.6313	-15.6860	-5.2490
-0.0848	0.8833	0.1401	-67.5659	-15.1367	-6.8359
-0.0775	0.8955	0.1364	-75.1343	-12.6343	-9.1553
-0.0442	0.9178	0.1553	-82.0923	-9.8267	-13.5498
-0.0260	0.9899	0.2219	-87.2803	-6.3477	-19.0430
-0.0599	1.1069	0.3514	-84.8389	-1.4038	-20.3247
-0.2871	1.2489	0.6053	-65.4907	1.8311	-15.3809
-0.6586	1.4397	1.0488	-22.5830	-3.7231	-2.9907
-1.0028	1.6769	1.3840	54.6875	-10.8032	18.9819
-0.9061	1.8041	1.4708	171.2646	2.0752	47.0581
-0.5723	1.6926	1.1537	310.7300	35.2783	75.1953
-0.4938	1.5305	0.9712	437.9272	63.4155	94.4824
-0.5198	1.5289	0.8867	554.1382	102.2949	91.8579
0.0023	1.5084	0.5187	666.5039	143.9209	63.2324
0.5685	1.3894	0.0095	745.1172	148.9258	18.4937
0.4575	1.2625	-0.1776	761.1084	112.2437	-17.7612
0.3418	1.0270	-0.2263	721.4355	69.8853	-22.3999
0.7590	0.5540	-0.2010	634.3994	33.3862	-7.3242
0.9861	0.0326	-0.2009	504.9438	-23.2544	-2.5024
0.4668	-0.3347	-0.0559	334.7778	-99.6094	-12.6953
-0.0327	-0.3291	0.0566	164.6729	-157.7759	-25.0244
-0.3339	-0.0035	0.1400	32.5317	-179.3823	-35.0342
-0.5524	0.2272	0.1823	-52.6123	-159.4849	-38.5132
-0.6370	0.4078	0.2736	-97.5952	-114.6851	-30.8228
-0.5746	0.5216	0.3408	-112.5488	-54.8706	-23.4375
-0.3802	0.4940	0.4120	-110.9619	0.5493	-23.9258
-0.1934	0.4039	0.5068	-107.2388	36.1328	-30.6396
-0.0775	0.3325	0.5876	-106.3843	52.4902	-39.9780
-0.0273	0.2987	0.6527	-112.3657	54.0161	-49.4385
-0.0187	0.3046	0.6716	-125.6104	51.0254	-55.8472
-0.0114	0.3394	0.6565	-143.4326	49.0112	-57.4341
-0.0159	0.4098	0.6333	-164.3677	47.5464	-56.7017
-0.0659	0.5024	0.6124	-185.3027	45.8374	-53.5889
-0.1440	0.5977	0.5762	-202.7588	46.2036	-46.9360
-0.1570	0.6782	0.5098	-216.6138	49.8657	-36.4380
-0.1318	0.7482	0.4584	-227.8442	55.7251	-22.4609
-0.0916	0.8303	0.4515	-238.1592	58.4717	-8.7280
-0.0197	0.9045	0.4930	-246.5820	54.6265	-2.5635
0.0343	0.9177	0.5339	-247.9858	40.8936	-3.6011
0.0122	0.9099	0.5696	-244.5068	16.4795	-8.9722
-0.0452	0.9010	0.5879	-238.0371	-11.2915	-14.7095
-0.1084	0.9027	0.5834	-229.6143	-31.5552	-17.3950
-0.1804	0.9182	0.5627	-219.9707	-39.3066	-16.9067
-0.2357	0.9161	0.5519	-208.2520	-34.1797	-12.6953
-0.2246	0.8745	0.4916	-197.3267	-23.2544	-6.9580
-0.2203	0.9469	0.5391	-188.5376	-11.5356	-0.6104
-0.1597	1.0005	0.5153	-173.5840	-2.4414	4.5776
-0.0844	1.0374	0.5393	-157.5928	-1.1597	5.9204
-0.0635	1.0532	0.5503	-138.1226	-6.4697	5.0049
-0.0851	1.0204	0.5476	-116.0278	-14.4653	4.0283
-0.1263	0.9967	0.5372	-93.5669	-23.9258	3.9062
-0.1803	0.9995	0.5103	-73.0591	-30.9448	5.1270
-0.1982	1.0016	0.4746	-54.7485	-30.0903	7.8125
-0.1595	0.9945	0.4457	-40.1611	-21.6675	10.0098
-0.1017	0.9818	0.4119	-29.6021	-10.9253	10.3149
-0.0537	0.9679	0.3854	-22.8882	-2.1362	8.6060
-0.0206	0.9569	0.3635	-20.4468	3.0518	6.0425
-0.0085	0.9478	0.3455	-20.3247	4.6387	2.8687
-0.0101	0.9423	0.3270	-21.5454	3.3569	-0.5493
-0.0177	0.9501	0.3073	-23.7427	0.6104	-3.4180
-0.0291	0.9512	0.3046	-26.1841	-2.0142	-6.0425
-0.0583	0.9456	0.3008	-27.7710	-4.0894	-8.3618
-0.0939	0.9371	0.2883	-28.2593	-5.4321	-9.5825
-0.1162	0.9281	0.2722	-28.1982	-6.8970	-9.7046
-0.1217	0.9169	0.2638	-28.6255	-8.3008	-8.6060
-0.1210	0.9058	0.2438	-29.3579	-9.2773	-6.5308
-0.1232	0.8932	0.2362	-30.5786	-9.8267	-4.2114
-0.1270	0.8867	0.2257	-31.9824	-10.3760	-2.3193
-0.1230	0.8923	0.2167	-33.3862	-10.7422	-0.9155
-0.1198	0.9021	0.2013	-34.6680	-11.3525	-0.8545
-0.1157	0.9087	0.1888	-35.7056	-10.8643	-1.5869
-0.1125	0.9136	0.1766	-36.8042	-9.1553	-3.1128
-0.1130	0.9147	0.1666	-38.2690	-6.4697	-5.0049
-0.0980	0.9108	0.1576	-40.3442	-2.9907	-6.3477
-0.0690	0.9028	0.1549	-43.5791	-0.5493	-7.3853
-0.0310	0.9012	0.1652	-47.0581	0.0000	-7.7515
-0.0220	0.9423	0.1891	-50.3540	-3.1738	-7.3853
-0.0432	1.0085	0.2366	-52.0020	-7.5684	-5.7373
-0.1155	1.0795	0.3158	-46.0205	-10.5591	-2.1362
-0.3813	1.2275	0.4993	-29.0527	-14.1602	6.2256
-0.5732	1.3300	0.7004	6.4697	-13.4888	21.7285
-0.8684	1.5223	0.9894	61.8286	-9.5825	43.2129
-0.9883	1.6492	1.0845	149.2310	9.0332	70.8008
-0.8477	1.5981	1.1638	261.7187	47.9126	98.4497
-0.6680	1.6067	1.1381	380.7373	92.7124	122.3145
-0.3385	1.6354	1.0001	505.6152	136.9019	131.8970
0.2468	1.5818	0.7692	623.1079	164.4287	117.5537
0.6458	1.5603	0.4430	714.9048	155.8838	78.8574
0.7651	1.5135	-0.0571	769.6533	109.3750	39.1846
0.8743	1.1383	-0.4430	761.8408	42.1753	13.7329
0.5358	0.5219	-0.4198	668.5181	-19.1650	2.9297
-0.0145	-0.1400	-0.2909	504.4556	-35.4004	5.9814
-0.2604	-0.6298	-0.1008	299.8047	-11.7187	16.5405
-0.2563	-0.5160	0.1228	110.8398	28.6865	6.0425
-0.1167	0.0806	0.2826	-17.2729	53.7720	-21.6675
-0.0786	0.4440	0.3850	-80.8105	51.2695	-36.9263
-0.0562	0.4829	0.3440	-94.8486	39.3677	-37.7197
-0.0966	0.4242	0.3402	-91.9189	19.0430	-32.7759
-0.1594	0.3553	0.3116	-89.1724	0.2441	-28.2593
-0.1823	0.3071	0.3151	-97.5952	-10.6812	-20.9961
-0.1737	0.2932	0.3433	-116.8823	-11.7187	-9.7656
-0.1268	0.2937	0.3638	-141.9067	-9.2773	2.0752
-0.0354	0.3304	0.4117	-173.7061	-10.8032	9.0942
0.0284	0.4249	0.4674	-206.2378	-17.7612	5.8594
0.0488	0.5297	0.5114	-227.4780	-32.1045	-4.5776
-0.0647	0.6500	0.5844	-237.6099	-53.1006	-19.0430
-0.2612	0.7397	0.6315	-235.1074	-64.3311	-34.8511
-0.3480	0.7769	0.6527	-222.2290	-55.6641	-45.7153
-0.3214	0.7855	0.6466	-205.4443	-30.5786	-51.8799
-0.2413	0.7946	0.6166	-190.0024	2.1973	-56.4575
-0.1317	0.8036	0.5818	-180.6030	31.7993	-60.7300
0.0194	0.8191	0.5409	-177.4902	52.0020	-64.8804
0.1832	0.8337	0.5334	-180.4199	58.5327	-69.1528
0.2551	0.8624	0.5955	-186.5845	48.7671	-71.3501
0.2024	0.9133	0.6327	-190.2466	29.1748	-69.2139
0.0989	0.9719	0.6543	-189.3311	5.3711	-62.6831
0.0006	1.0234	0.6681	-184.3262	-15.9302	-52.0020
-0.0613	1.0613	0.6531	-174.8657	-30.7617	-39.5508
-0.1237	1.0790	0.6250	-161.5601	-39.8560	-29.2969
-0.1793	1.0771	0.6003	-146.0571	-42.8467	-20.9961
-0.2107	1.0748	0.5787	-128.6621	-39.6729	-14.4653
-0.2039	1.0653	0.5587	-110.8398	-32.1045	-10.6201
-0.1715	1.0415	0.5364	-92.7734	-21.9727	-7.9346
-0.1328	1.0166	0.5022	-75.5005	-11.1694	-6.3477
-0.0848	0.9927	0.4904	-59.6924	-4.0283	-5.6152
-0.0667	0.9686	0.4769	-46.2036	-1.6479	-5.3101
-0.0715	0.9471	0.4595	-35.2783	-1.3428	-3.4180
-0.0637	0.9248	0.4308	-27.2217	-2.1362	0.3052
-0.0454	0.9089	0.4142	-22.0947	-4.2725	5.0049
-0.0382	0.9032	0.3866	-19.9585	-8.0566	9.9487
-0.0375	0.9064	0.3680	-20.4468	-13.1836	15.0146
-0.0422	0.9061	0.3451	-22.5830	-18.6157	19.2261
-0.0449	0.9081	0.3302	-25.8789	-23.6816	22.0337
-0.0596	0.9111	0.3109	-29.3579	-28.0762	23.5596
-0.0780	0.9086	0.2889	-33.0200	-30.2124	23.9258
-0.0977	0.9066	0.2676	-36.7432	-29.8462	23.5596
-0.1039	0.9012	0.2576	-40.7104	-27.2217	22.7051
-0.0961	0.8931	0.2581	-44.0674	-23.3765	20.7520
-0.0907	0.8875	0.2596	-46.3257	-19.9585	17.7612
-0.0942	0.8804	0.2557	-47.1802	-15.8691	14.5264
-0.0847	0.8739	0.2388	-46.5698	-11.6577	11.3525
-0.0807	0.8777	0.2375	-46.9971	-8.7280	7.6294
-0.0841	0.8872	0.2345	-46.5088	-6.2866	3.6621
-0.0731	0.8944	0.2267	-45.7153	-3.7231	0.2441
-0.0668	0.8994	0.2175	-45.6543	-1.4038	-3.3569
-0.0647	0.9021	0.2109	-45.5933	1.7090	-6.1035
-0.0636	0.9064	0.2052	-45.3491	5.9814	-8.9111
-0.0571	0.9049	0.1888	-45.7764	9.5825	-11.5356
-0.0449	0.9044	0.1721	-47.1802	12.2070	-13.7329
-0.0352	0.9021	0.1400	-49.0723	13.4277	-15.1978
-0.0305	0.9072	0.1353	-52.8564	14.2822	-15.9302
-0.0232	0.9185	0.1241	-57.1899	15.4419	-15.9912
-0.0060	0.9271	0.1230	-61.5234	16.4185	-15.0146
0.0050	0.9509	0.1425	-65.3687	16.2354	-14.1602
-0.0424	1.0282	0.2383	-67.0776	13.7939	-13.5498
-0.2803	1.1989	0.4807	-59.2041	10.3149	-9.4604
-0.5426	1.3500	0.7744	-32.8369	11.2915	4.8218
-0.7804	1.5571	1.0380	20.5078	16.6626	33.5083
-0.8348	1.7676	1.1052	104.3701	30.8838	70.0073
-0.8120	1.8136	1.1171	214.7217	60.6079	103.4546
-0.7606	1.8046	1.1488	335.0830	97.1069	137.3291
-0.6631	1.8844	1.0792	466.3086	142.5171	162.3535
-0.3768	1.9534	0.9828	605.8350	192.0776	160.8887
0.1182	1.9802	0.6204	744.6289	225.8301	126.7700
0.3500	2.0292	0.2854	853.7598	217.0410	74.9512
0.4183	1.9944	-0.4359	905.6396	181.2744	40.2832
0.7035	1.2358	-0.7815	863.8306	137.6953	32.5928
0.6819	-0.2396	-0.5999	703.6133	97.7783	40.6494
0.5624	-1.3325	-0.3973	459.6558	80.0171	44.7998
0.5424	-1.2634	-0.0643	191.5894	42.6636	17.2729
0.4147	-0.3177	0.1521	-12.8174	-12.6953	-32.1045
0.1571	0.3279	0.3374	-127.9907	-75.1343	-70.5566
-0.0121	0.5548	0.2847	-160.9497	-124.7559	-82.8857
-0.2117	0.5670	0.2129	-153.9917	-146.3013	-77.7588
-0.4584	0.5156	0.2017	-142.2119	-143.8599	-66.4063
-0.5765	0.4841	0.2025	-139.1602	-119.0796	-51.0254
-0.5463	0.4642	0.2406	-145.5078	-79.2847	-35.2783
-0.4023	0.4181	0.2769	-157.1655	-36.6821	-23.3154
-0.3109	0.4097	0.3132	-174.4995	-3.1128	-20.9351
-0.2069	0.4167	0.3578	-195.9839	17.9443	-22.5220
-0.0961	0.4371	0.3987	-217.1021	27.0386	-24.5972
-0.0465	0.5002	0.4080	-234.6191	26.3062	-25.7568
-0.0521	0.6178	0.4712	-248.2300	17.5781	-26.3062
-0.1158	0.7665	0.5349	-255.4321	7.0190	-27.6489
-0.1223	0.8392	0.5334	-250.8545	1.7700	-30.0903
-0.1591	0.9005	0.5878	-239.8071	-7.8735	-31.1279
-0.2426	0.9469	0.6760	-223.0835	-16.9678	-30.7007
-0.3076	0.9561	0.7413	-200.4395	-19.8364	-26.9775
-0.3059	0.9406	0.7667	-174.6216	-14.5874	-20.5078
-0.2427	0.9275	0.7473	-149.7803	-6.1035	-13.9160
-0.1422	0.9143	0.6980	-129.4556	0.3662	-10.1318
-0.0300	0.9015	0.6672	-116.4551	2.6855	-10.3149
0.0355	0.8799	0.6261	-108.5205	-0.6714	-12.3291
0.0475	0.8707	0.5906	-105.3467	-7.5684	-13.9771
0.0275	0.8691	0.5511	-105.2246	-15.7471	-14.2212
-0.0184	0.8837	0.5284	-106.6895	-22.3999	-14.0381
-0.0660	0.9066	0.5048	-106.6895	-25.7568	-12.0239
-0.0891	0.9061	0.4854	-104.1260	-24.2310	-9.4604
-0.0920	0.8995	0.4669	-99.9146	-22.2168	-7.1411
-0.0933	0.8932	0.4456	-94.8486	-22.3999	-5.1270
-0.0939	0.8861	0.4274	-89.1724	-25.0244	-2.5024
-0.1022	0.8854	0.4110	-83.4351	-29.2358	0.4883
-0.1228	0.8832	0.3933	-77.9419	-33.9966	3.4180
-0.1366	0.8752	0.3674	-73.2422	-37.6587	6.4697
-0.1329	0.8712	0.3458	-70.8618	-39.1846	8.9722
-0.1196	0.8671	0.3254	-69.3359	-40.1611	9.8877
-0.1168	0.8763	0.3094	-69.3970	-39.3066	9.0332
-0.1201	0.8929	0.2889	-69.9463	-37.2314	5.8594
-0.1215	0.8999	0.2631	-70.8618	-34.1797	0.9155
-0.1266	0.9052	0.2449	-72.7539	-29.8462	-4.6997
-0.1400	0.9199	0.2310	-74.9512	-23.2544	-10.5591
-0.1418	0.9319	0.2277	-76.9653	-15.4419	-16.6016
-0.1215	0.9364	0.2430	-77.8809	-8.2397	-22.1558
-0.1053	0.9518	0.2667	-76.9653	-4.8218	-27.0996
-0.1058	0.9626	0.2710	-74.4019	-5.0049	-30.3345
-0.1160	0.9661	0.2590	-70.9229	-6.8359	-31.0669
-0.1191	0.9658	0.2432	-67.8711	-8.0566	-29.5410
-0.1086	0.9689	0.2133	-66.4063	-8.3618	-26.9775
-0.0952	0.9757	0.1953	-67.0776	-8.0566	-23.7427
-0.0957	0.9833	0.1880	-68.7866	-6.9580	-20.8130
-0.0917	0.9878	0.1840	-69.8242	-5.6152	-18.0664
-0.0795	0.9929	0.1758	-70.6787	-5.8594	-15.8691
-0.0769	0.9922	0.1643	-70.5566	-6.7749	-13.9160
-0.0739	0.9860	0.1584	-69.0918	-7.7515	-12.0239
-0.0370	0.9689	0.1724	-67.0166	-9.2163	-10.6201
0.0120	0.9688	0.2097	-65.0024	-13.5498	-10.3149
0.0508	0.9960	0.2240	-62.6831	-21.4233	-9.5215
-0.0453	1.0764	0.3647	-53.2837	-32.3486	-5.7983
-0.4839	1.3038	0.5863	-26.8555	-48.5840	9.0332
-0.8483	1.4519	0.9001	23.6206	-57.2510	39.0015
-0.9132	1.5232	1.2037	96.0083	-50.1099	79.9561
-0.9639	1.6698	1.3143	195.4956	-25.7568	126.2817
-0.8740	1.7648	1.1731	324.0967	22.4609	176.4526
-0.4193	1.7019	1.0693	454.6509	69.6411	212.7686
0.1315	1.7506	0.8390	569.8853	93.6279	220.2759
0.6062	1.7720	0.4764	668.5791	85.9375	194.0918
0.6721	1.7225	0.2213	731.6895	44.0674	139.7095
0.2325	1.5614	0.0822	757.9956	1.7700	76.2329
-0.2832	1.5161	0.0159	756.6528	-1.5259	31.4941
-0.3094	1.3109	-0.1821	730.1025	29.6631	23.4375
0.0557	0.4669	-0.5482	651.7944	68.6035	25.7568
-0.0107	-0.5442	-0.5338	483.8257	105.9570	30.6396
-0.1425	-1.1777	-0.1135	266.0522	142.0288	35.5835
-0.0146	-0.9617	0.3142	73.8525	137.1460	13.4888
0.0813	-0.1733	0.4404	-50.1099	99.5483	-22.3389
0.1937	0.2837	0.4026	-121.3989	41.2598	-53.1006
0.1685	0.4514	0.3516	-155.8228	-23.0103	-70.8618
-0.0937	0.4719	0.3348	-173.0957	-75.9277	-77.8809
-0.3069	0.4224	0.2377	-187.3169	-98.5718	-82.8247
-0.3669	0.4233	0.1234	-206.7261	-93.0786	-84.2285
-0.4116	0.4919	0.1655	-228.3936	-73.1812	-82.0313
-0.5127	0.6237	0.2950	-247.0093	-44.5557	-77.2095
-0.5944	0.6941	0.4409	-254.0894	-11.5967	-67.6270
-0.6044	0.6648	0.5005	-250.3052	23.7427	-50.8423
-0.5117	0.6388	0.4581	-244.9341	57.9834	-30.5786
-0.3223	0.6516	0.3926	-244.2627	81.4209	-16.4185
-0.1066	0.7076	0.3671	-249.3286	86.8530	-12.6953
0.0353	0.7998	0.3698	-257.9346	74.6460	-18.6157
0.0962	0.8622	0.4170	-263.2446	49.8047	-30.2734
0.1045	0.8901	0.4551	-263.6719	18.7378	-41.3208
0.0088	0.9285	0.4939	-259.6436	-8.8501	-49.0112
-0.1332	0.9574	0.5190	-250.3052	-26.9165	-52.3071
-0.2449	0.9833	0.5594	-237.9761	-31.8604	-52.0630
-0.2948	1.0132	0.5881	-220.7642	-22.5830	-49.1333
-0.2830	1.0336	0.6117	-199.3408	-4.2114	-42.7246
-0.2028	1.0262	0.5991	-176.0864	15.7471	-36.0107
-0.0968	1.0214	0.5876	-155.3955	28.8086	-30.5176
-0.0269	1.0308	0.5709	-137.3291	32.0435	-25.6348
0.0000	1.0367	0.5540	-121.2769	28.9307	-20.9351
0.0015	1.0302	0.5220	-106.7505	21.4844	-15.7471
0.0094	1.0168	0.4969	-93.7500	11.3525	-10.9253
-0.0131	1.0068	0.4910	-82.0313	0.2441	-6.2256
-0.0673	1.0050	0.4596	-69.9463	-8.5449	-0.9766
-0.1044	1.0028	0.4205	-57.9224	-14.0381	4.5776
-0.1180	0.9888	0.3997	-47.3022	-16.8457	10.3760
-0.1266	0.9796	0.3761	-37.3535	-16.1133	15.0146
-0.1328	0.9803	0.3486	-28.0762	-12.8784	19.1040
-0.1288	0.9788	0.3199	-20.3857	-9.0332	22.4609
-0.1089	0.9668	0.3060	-14.8926	-6.1646	24.2310
-0.0929	0.9578	0.2872	-11.2305	-4.5776	23.9258
-0.0968	0.9569	0.2765	-8.6670	-3.7842	22.3389
-0.1166	0.9554	0.2594	-7.1411	-2.9907	20.3247
-0.1146	0.9530	0.2316	-6.8359	-1.5869	17.4561
-0.0933	0.9417	0.2081	-8.6670	-1.0986	14.2212
-0.0798	0.9236	0.1985	-12.0850	-1.7090	10.5591
-0.0856	0.9158	0.1931	-16.4795	-2.8076	7.3853
-0.0983	0.9116	0.1853	-20.5078	-3.8452	5.3711
-0.0907	0.9054	0.1830	-24.3530	-4.2114	3.2959
-0.0807	0.8995	0.1836	-28.3203	-4.3945	0.6714
-0.0660	0.8983	0.1801	-31.4331	-4.3335	-2.2583
-0.0818	0.9092	0.1710	-34.1797	-3.2349	-5.1270
-0.0947	0.9117	0.1531	-36.4990	-0.2441	-7.3242
-0.0627	0.8966	0.1309	-40.0391	3.4180	-9.0942
-0.0430	0.8920	0.1235	-46.9360	5.6152	-10.8643
-0.0342	0.8906	0.1248	-54.9316	7.4463	-11.7187
-0.0320	0.8923	0.1119	-62.3169	8.4839	-11.9629
-0.0140	0.8947	0.1000	-70.0073	7.5684	-11.9629
-0.0007	0.9126	0.1063	-77.8198	4.0894	-12.3901
0.0448	0.9401	0.1313	-85.4492	-0.5493	-13.7939
0.0482	0.9974	0.2052	-91.4917	-6.1646	-16.0522
-0.1542	1.1798	0.4054	-88.4399	-11.2915	-11.8408
-0.4668	1.3654	0.7360	-63.4766	-13.3057	6.4697
-0.7124	1.5223	1.0625	-11.4746	-22.2778	33.2642
-1.2747	1.8422	1.4187	69.0918	-37.3535	69.8242
-1.3666	1.9850	1.3260	197.5708	-8.0566	120.9717
-0.9023	1.9139	1.0876	346.8018	54.7485	169.0063
-0.7185	1.8734	1.0321	490.6616	114.4409	195.4346
-0.4347	1.9189	0.9528	633.3008	161.0718	189.0869
0.2374	2.0433	0.3892	768.1885	175.8423	151.5503
0.7128	1.9119	-0.2638	854.0039	142.3950	104.0649
0.3655	1.4192	-0.6670	850.0366	96.4355	67.6270
0.2853	0.6633	-0.5436	764.1602	74.6460	61.6455
0.5281	-0.1138	-0.3885	614.6240	66.0400	68.0542
0.5933	-0.7583	-0.3235	414.4897	50.8423	61.6455
0.3635	-0.9435	-0.1200	190.7349	14.2212	21.1182
0.2793	-0.3478	0.0718	2.6855	-33.6304	-33.0200
0.1588	0.2552	0.2167	-110.7788	-77.2705	-73.4253
0.0509	0.4606	0.1589	-150.2075	-95.9473	-87.2803
-0.2295	0.5192	0.2114	-148.0103	-94.9097	-85.7544
-0.4620	0.4727	0.2872	-132.6904	-81.1157	-81.6040
-0.4728	0.3750	0.3176	-123.2910	-49.8047	-78.6743
-0.3759	0.3375	0.3279	-127.3804	-6.0425	-76.4771
-0.2007	0.3468	0.3472	-144.2261	36.6211	-73.8525
-0.0463	0.3879	0.3870	-168.8232	65.3076	-72.3877
-0.0210	0.4313	0.4481	-194.9463	73.7915	-70.9229
-0.0544	0.4802	0.4615	-218.2617	67.0166	-65.6128
-0.0549	0.5730	0.4661	-236.8164	54.0161	-59.6313
-0.0488	0.6908	0.4598	-250.1221	36.6211	-49.1943
-0.0765	0.7889	0.4414	-257.0801	19.2871	-38.8794
-0.1266	0.8560	0.4399	-259.3384	0.6714	-32.9590
-0.2051	0.9342	0.4790	-258.7891	-18.7988	-31.9214
-0.2583	0.9839	0.5046	-251.0986	-33.3252	-34.1797
-0.2853	1.0184	0.5189	-238.2202	-38.1470	-37.6587
-0.3098	1.0406	0.5360	-222.2900	-33.3252	-40.4663
-0.3007	1.0435	0.5544	-205.1392	-24.1089	-42.1753
-0.2656	1.0270	0.5620	-187.8052	-15.5029	-43.5181
-0.2118	1.0107	0.5691	-171.3257	-8.8501	-44.1284
-0.1466	1.0060	0.5631	-155.7007	-4.9438	-43.0908
-0.0927	1.0034	0.5530	-141.6626	-4.2725	-41.3818
-0.0580	0.9996	0.5320	-130.3101	-6.4697	-38.6963
-0.0746	1.0129	0.5138	-120.3613	-11.5356	-34.1187
-0.1099	1.0204	0.4891	-110.1685	-16.0522	-26.9165
-0.1265	1.0193	0.4642	-99.3042	-19.1040	-18.4326
-0.1287	1.0115	0.4435	-88.4399	-22.0337	-10.6812
-0.1450	1.0125	0.4185	-77.4536	-24.2920	-3.4790
-0.1733	1.0115	0.3927	-66.1011	-23.9868	2.9297
-0.1788	1.0090	0.3749	-55.4810	-21.4844	8.5449
-0.1619	1.0073	0.3635	-45.5322	-18.0054	12.8174
-0.1415	1.0087	0.3583	-37.1094	-14.8315	15.1978
-0.1289	1.0095	0.3499	-29.8462	-11.3525	16.2964
-0.1132	1.0039	0.3405	-23.1323	-8.0566	16.1133
-0.1019	0.9900	0.3373	-17.4561	-6.4087	14.7705
-0.1069	0.9769	0.3143	-12.2681	-5.6152	13.1226
-0.1165	0.9596	0.2939	-7.9956	-4.4556	11.7798
-0.1134	0.9436	0.2725	-5.2490	-3.6621	10.5591
-0.1143	0.9353	0.2610	-3.4180	-3.2959	8.9722
-0.1161	0.9301	0.2542	-1.5869	-2.6855	7.0190
-0.1207	0.9216	0.2432	0.0610	-1.9531	5.4321
-0.1117	0.9136	0.2418	1.6479	-1.6479	4.1504
-0.0974	0.9102	0.2467	2.9907	-2.1973	2.6245
-0.1014	0.9099	0.2415	4.3335	-3.4180	1.3428
-0.0981	0.9026	0.2294	5.4321	-3.3569	0.5493
-0.0817	0.8851	0.2332	5.2490	-2.5635	-0.4272
-0.0746	0.8735	0.2355	4.3945	-2.2583	-1.3428
-0.0914	0.8800	0.2224	3.3569	-1.0986	-1.7700
-0.0743	0.8794	0.1798	1.7700	0.1221	-1.8921
-0.0697	0.8810	0.1775	-2.3804	0.0610	-3.2349
-0.0814	0.8795	0.1873	-6.8970	-0.1221	-4.8218
-0.0928	0.8792	0.1848	-11.0474	0.8545	-6.4697
-0.0989	0.8801	0.1764	-14.5264	2.0142	-8.4229
-0.0966	0.8754	0.1661	-17.3340	2.7466	-10.2539
-0.0991	0.8674	0.1688	-20.4468	3.4180	-11.8408
-0.1050	0.8545	0.1626	-23.2544	4.0283	-13.0615
-0.1014	0.8555	0.1641	-25.8179	6.1035	-13.2446
-0.0894	0.8693	0.1543	-28.8086	7.0190	-13.0005
-0.0684	0.8754	0.1367	-32.2876	7.2021	-12.3291
-0.0520	0.8752	0.1293	-37.8418	6.9580	-11.4746
-0.0476	0.8801	0.1125	-44.9829	6.8970	-11.0474
-0.0414	0.8928	0.1014	-52.4292	6.9580	-11.5967
-0.0532	0.9054	0.1010	-60.0586	7.1411	-13.4277
-0.0603	0.9092	0.1011	-66.5894	7.8735	-16.3574
-0.0580	0.9160	0.1079	-71.7773	8.1787	-19.2871
-0.0548	0.9313	0.1200	-74.8901	7.3242	-22.2168
-0.0262	0.9440	0.1534	-75.8057	5.3101	-24.2310
-0.0052	0.9800	0.2144	-74.4019	0.9155	-26.0010
-0.0614	1.0693	0.3021	-66.8335	-5.0049	-24.4141
-0.1997	1.1554	0.3938	-48.4619	-9.8267	-16.6016
-0.4200	1.2482	0.6252	-17.5171	-14.2212	-2.1973
-0.4354	1.3060	0.8177	26.3672	-18.6768	16.4185
-0.5300	1.4202	0.9797	89.4775	-23.5596	36.3159
-0.6506	1.5356	1.0397	166.0156	-22.3999	61.7676
-0.6643	1.6244	0.9774	251.8921	-2.9907	89.4165
-0.5502	1.6578	0.9316	343.5669	29.1748	114.6851
-0.3362	1.6498	0.8827	436.4014	70.6787	125.7935
-0.0684	1.6150	0.7931	526.8555	107.4829	118.1641
0.1517	1.5934	0.5840	606.1401	122.4365	91.7358
0.2596	1.5612	0.2338	663.3911	114.8071	57.1899
0.3203	1.3409	-0.0828	681.1523	91.9189	25.9399
0.1517	0.9579	-0.1130	644.1040	73.7305	6.1035
-0.0018	0.5908	-0.0345	561.0352	73.5474	7.2021
0.1100	0.1104	0.0643	442.8101	79.5288	17.5171
0.3915	-0.2297	0.0831	305.2368	71.8994	25.0244
0.4268	-0.2671	0.1976	163.9404	33.3252	10.0098
0.2566	-0.0365	0.2715	40.0391	-26.7944	-14.5874
0.0563	0.2207	0.2950	-48.5229	-87.6465	-32.4097
-0.1400	0.3635	0.3325	-99.1211	-128.2959	-44.0063
-0.3345	0.4169	0.3450	-121.5820	-136.8408	-46.0205
-0.4266	0.4329	0.3838	-130.6763	-116.4551	-38.7573
-0.4264	0.4430	0.4583	-135.3149	-78.9185	-31.1279
-0.4048	0.4861	0.5402	-136.5967	-36.9873	-27.3438
-0.3453	0.4993	0.5828	-135.8643	0.3052	-26.6724
-0.2306	0.4684	0.5659	-134.2773	29.8462	-26.6113
-0.1664	0.4515	0.5350	-134.5825	48.0957	-25.4517
-0.1250	0.4503	0.4822	-137.3291	56.5186	-21.9727
-0.0258	0.4543	0.4077	-143.4326	56.9458	-16.1743
0.0101	0.5127	0.4265	-151.1841	47.3022	-9.3994
-0.0319	0.5874	0.4983	-154.1138	29.7852	-5.0049
-0.1128	0.6372	0.5837	-151.0010	7.3242	-0.6714
-0.1888	0.7018	0.6520	-143.3105	-12.7563	2.8076
-0.2042	0.7512	0.6539	-132.6294	-27.4658	5.1270
-0.2002	0.7719	0.6460	-125.0000	-36.3770	5.4321
-0.2048	0.7842	0.6152	-120.3003	-39.0015	3.5400
-0.1952	0.7893	0.5863	-119.6899	-36.3159	0.8545
-0.1910	0.7932	0.5630	-123.2300	-31.3110	-3.6011
-0.1949	0.8015	0.5249	-128.4180	-23.9868	-8.9111
-0.1897	0.8101	0.4893	-134.2163	-15.4419	-14.5874
-0.1469	0.8132	0.4590	-140.3809	-8.4839	-19.8975
-0.0992	0.8104	0.4543	-145.3857	-4.6387	-25.2075
-0.0962	0.8221	0.4490	-147.8271	-3.2959	-28.8086
-0.1102	0.8254	0.4323	-147.3999	-3.5400	-29.6021
-0.1045	0.8180	0.4186	-145.7520	-5.3711	-28.1982
-0.1035	0.8181	0.4141	-144.1040	-9.0942	-24.5972
-0.1077	0.8292	0.4113	-141.3574	-13.3667	-18.7378
-0.1152	0.8356	0.4128	-137.3901	-17.3340	-12.2681
-0.1211	0.8387	0.3778	-132.9956	-21.1182	-6.2866
-0.1421	0.8523	0.3658	-128.7842	-24.4141	-0.4272
-0.1346	0.8566	0.3254	-124.6338	-26.7944	6.1646
-0.1133	0.8733	0.2926	-121.0327	-28.0151	9.9487
-0.1017	0.9026	0.3108	-118.8354	-28.1982	10.4370
-0.0991	0.9355	0.3444	-114.4409	-26.4893	7.7515
-0.1188	0.9675	0.3585	-106.5674	-25.0244	3.9673
-0.1377	0.9879	0.3485	-97.4121	-23.4985	0.1831
-0.1591	0.9985	0.3422	-87.8296	-21.7285	-3.9062
-0.1802	1.0006	0.3304	-77.3926	-17.8833	-6.4087
-0.1880	0.9972	0.3169	-67.1387	-12.0239	-7.6294
-0.1803	0.9895	0.2949	-57.7393	-5.5542	-7.5684
-0.1542	0.9795	0.2723	-50.2930	-0.2441	-6.0425
-0.1326	0.9740	0.2480	-44.9219	3.2349	-4.0283
-0.1012	0.9711	0.2252	-40.8936	5.7983	-2.0142
-0.0813	0.9769	0.2147	-39.3066	5.8594	-0.9766
-0.0804	0.9806	0.2042	-39.3066	5.4321	-1.4038
-0.0809	0.9792	0.1895	-40.1001	5.4932	-2.6855
-0.0750	0.9736	0.1738	-41.2598	5.5542	-4.2725
-0.0487	0.9692	0.1682	-42.9077	3.6621	-6.3477
-0.0197	0.9799	0.2007	-45.4102	-1.0986	-8.6670
-0.0367	1.0171	0.2357	-47.0581	-8.7891	-10.9253
-0.1562	1.1256	0.3154	-45.9595	-15.8081	-9.8877
-0.2635	1.2036	0.3945	-36.8042	-17.9443	-5.3711
-0.3333	1.2517	0.5717	-12.8784	-15.3809	4.5166
-0.4624	1.3767	0.8392	23.4985	-14.7705	18.3105
-0.6732	1.5293	1.0596	80.8105	-17.2119	37.0483
-0.7814	1.6261	1.0764	158.2031	-13.0615	65.0024
-0.8164	1.7090	1.0525	247.2534	7.9346	96.5576
-0.6094	1.6805	0.9369	339.7827	41.9922	125.9766
-0.3087	1.6298	0.9238	427.4292	75.1343	141.8457
-0.0518	1.6049	0.8851	508.6670	90.9424	140.5640
0.2170	1.5697	0.7177	578.3691	85.8154	122.4365
0.3000	1.5043	0.5013	629.9438	64.4531	92.1631
0.1558	1.3771	0.3159	655.2734	39.1846	60.7300
-0.1042	1.2070	0.2529	652.2217	30.2124	39.8560
-0.2274	0.9984	0.2283	626.0376	46.0205	37.8418
-0.0996	0.6818	0.2104	580.9937	70.7397	49.0112
0.1327	0.3934	0.2136	515.9912	80.9326	62.4390
0.3613	0.1527	0.2421	438.2324	59.9365	67.3828
0.4243	-0.0374	0.2745	354.1870	8.1177	57.1899
0.2651	-0.1846	0.2893	269.8975	-58.5938	31.4331
-0.0537	-0.2719	0.2927	191.5894	-116.2720	-2.1362
-0.3352	-0.2727	0.2975	121.0938	-142.8833	-32.5317
-0.5154	-0.1875	0.3307	60.6689	-132.6294	-54.0161
-0.6370	-0.0583	0.3903	15.4419	-92.5903	-63.1104
-0.6184	0.0623	0.4547	-11.5356	-39.6118	-61.1572
-0.5570	0.1464	0.5272	-24.9023	8.1787	-51.6968
-0.5103	0.1584	0.5718	-29.7241	43.7622	-38.6353
-0.4160	0.1268	0.5790	-33.5693	63.3545	-25.6348
-0.3041	0.1060	0.5881	-41.3818	67.2607	-12.5732
-0.2646	0.0952	0.6249	-54.9316	60.6689	-3.1128
-0.2482	0.0861	0.6337	-71.5942	52.4292	1.1597
-0.1927	0.0763	0.6161	-90.6372	41.9922	1.5259
-0.1429	0.0747	0.5760	-113.5864	30.5786	-2.5024
-0.1122	0.0920	0.5221	-141.2354	21.0571	-10.3760
-0.0847	0.1559	0.4747	-172.4243	15.2588	-22.2778
-0.0753	0.2545	0.4580	-201.2939	12.0239	-37.6587
-0.1317	0.3739	0.4651	-226.1353	10.6812	-53.7720
-0.2563	0.4796	0.4929	-246.4600	14.2212	-65.7349
-0.3535	0.5387	0.5021	-260.1929	27.7710	-68.0542
-0.3669	0.5754	0.4960	-268.9209	50.9644	-61.5234
-0.3076	0.6168	0.4828	-273.6206	77.6367	-52.1240
-0.1788	0.6501	0.4767	-276.1230	97.9614	-44.7998
-0.0323	0.6379	0.4661	-277.8931	103.6987	-38.9404
0.0950	0.6569	0.4274	-279.1138	100.4639	-43.0298
0.1942	0.7034	0.4327	-284.5459	79.6509	-42.4805
0.2007	0.7587	0.4807	-289.6118	50.2319	-41.8701
0.1338	0.8046	0.5265	-290.0391	19.0430	-44.4946
0.0389	0.8517	0.5764	-285.8276	-8.4229	-48.2788
-0.0438	0.9001	0.5895	-276.0620	-28.6255	-49.9878
-0.0991	0.9265	0.5939	-262.6343	-40.4663	-48.6450
-0.1266	0.9558	0.6021	-246.1548	-43.2739	-45.8374
-0.1366	0.9919	0.5878	-228.2715	-42.5415	-41.5039
-0.1348	1.0143	0.5957	-209.5947	-39.6118	-35.9497
-0.1287	1.0358	0.6035	-190.0635	-35.5835	-30.5176
-0.1475	1.0508	0.5851	-167.6636	-32.1045	-24.5361
-0.1681	1.0740	0.5750	-146.1792	-29.9072	-17.4561
-0.1808	1.0851	0.5565	-124.2676	-26.2451	-9.8267
-0.1833	1.0728	0.5446	-102.7222	-19.1040	-2.0142
-0.1522	1.0560	0.5295	-82.5195	-10.4370	4.0283
-0.1024	1.0538	0.5359	-64.8804	-5.1880	7.9346
-0.0710	1.0636	0.5115	-49.0112	-5.0659	10.4980
-0.0640	1.0629	0.4677	-35.6445	-7.2021	12.3291
-0.0765	1.0408	0.4270	-24.9634	-8.7891	13.9160
-0.0758	1.0170	0.3784	-17.7002	-8.5449	14.8926
-0.0649	0.9860	0.3276	-14.5874	-6.9580	15.4419
-0.0570	0.9581	0.2833	-14.7705	-4.0894	14.8315
-0.0500	0.9404	0.2489	-17.0898	-1.4648	14.2212
-0.0447	0.9246	0.2272	-21.6675	-0.7324	12.3901
-0.0453	0.9135	0.2114	-27.7710	-1.9531	9.2163
-0.0537	0.9099	0.2072	-33.7524	-5.0049	5.9204
-0.0731	0.9059	0.2023	-39.3677	-8.4229	2.2583
-0.0751	0.8936	0.1875	-44.0674	-11.3525	-0.6714
-0.0830	0.8872	0.1936	-49.2554	-13.7939	-3.1738
-0.1057	0.8938	0.2078	-53.5278	-14.1602	-4.8828
-0.1097	0.9041	0.2289	-55.9692	-12.8784	-5.4932
-0.0936	0.9159	0.2494	-57.1289	-11.3525	-6.0425
-0.1274	0.9485	0.3020	-56.3354	-10.1318	-5.6152
-0.2216	1.0204	0.3838	-51.0864	-8.4839	-1.4648
-0.4083	1.1472	0.5105	-38.3911	-4.8218	7.2632
-0.5612	1.2448	0.7830	-11.2915	2.6245	27.5879
-0.4316	1.3174	0.9379	31.9824	10.1929	50.7813
-0.5817	1.5187	1.1530	93.8110	6.3477	76.5991
-0.8314	1.6638	1.1488	175.2319	7.0801	112.4268
-0.8119	1.6006	1.0229	274.4141	28.5645	151.7944
-0.6318	1.5872	0.9811	374.8169	60.6689	191.5894
-0.3856	1.6530	0.9098	484.3140	100.7080	215.4541
-0.0140	1.6521	0.7070	600.0366	130.6763	207.1533
0.2163	1.6383	0.3649	704.9561	130.9204	165.7104
0.1510	1.6661	0.1149	777.5269	111.6943	121.6431
-0.0570	1.5718	-0.0470	808.4717	96.4355	98.9380
-0.0435	1.3578	-0.0680	793.0908	100.4028	104.1870
0.6177	0.7892	-0.3068	735.3516	108.0322	119.5068
0.9296	-0.2595	-0.2224	608.4595	80.0171	106.9946
0.4204	-1.1337	-0.0432	421.6309	30.3955	82.1533
0.0145	-1.4301	0.2079	224.7314	-28.5645	41.5039
-0.0930	-1.0079	0.4229	58.4106	-76.9653	-14.4043
-0.0646	-0.4421	0.4827	-59.0210	-97.2900	-64.4531
-0.1395	0.0105	0.4966	-125.3662	-95.9473	-93.3228
-0.2192	0.2625	0.4935	-146.7896	-84.2896	-105.8350
-0.3103	0.3524	0.4546	-150.7568	-67.5659	-102.6001
-0.4480	0.4155	0.5342	-152.2827	-47.3022	-87.0361
-0.5372	0.4077	0.6261	-149.9634	-20.1416	-64.8193
-0.5223	0.3784	0.7445	-141.5405	9.3994	-43.0298
-0.4928	0.3575	0.7958	-129.6997	33.6914	-29.2969
-0.4146	0.2974	0.7776	-120.2393	49.9878	-23.6816
-0.3046	0.2466	0.7212	-119.4458	56.5186	-23.5596
-0.1963	0.2416	0.6591	-127.7466	55.7861	-27.4658
-0.1498	0.2770	0.5939	-144.1650	48.7671	-34.9121
-0.1664	0.3152	0.5690	-165.4053	42.4194	-43.0908
-0.2797	0.4388	0.5559	-187.1948	39.3677	-49.1333
-0.3728	0.5508	0.5537	-207.3975	38.6353	-42.5415
-0.3357	0.5878	0.5443	-223.3887	44.2505	-30.5176
-0.2485	0.6184	0.5446	-235.2295	50.7202	-21.7285
-0.1829	0.6606	0.5319	-244.6289	49.4995	-16.9067
-0.1327	0.6970	0.5306	-252.5024	39.3677	-15.5029
-0.1217	0.7325	0.5337	-258.9722	20.8740	-15.3198
-0.1068	0.7677	0.5282	-263.4277	-0.7935	-14.5264
-0.1195	0.7899	0.5282	-264.9536	-21.3623	-14.9536
-0.1377	0.8074	0.5150	-263.7329	-37.8418	-16.8457
-0.1727	0.8420	0.5043	-260.3149	-49.5605	-19.9585
-0.2209	0.8864	0.5067	-255.0659	-56.2134	-22.7661
-0.2703	0.9204	0.5122	-246.3379	-56.2134	-24.2310
-0.2977	0.9343	0.5232	-233.7646	-48.9502	-23.8037
-0.2889	0.9408	0.5293	-218.6279	-36.8042	-22.8882
-0.2379	0.9427	0.5298	-201.2329	-24.1089	-21.5454
-0.1337	0.9293	0.5491	-181.7017	-16.6626	-20.2637
-0.0754	0.9352	0.5939	-162.0483	-20.3247	-18.8599
-0.1251	0.9807	0.5942	-140.8691	-31.7993	-16.2964
-0.2047	1.0054	0.5709	-119.3237	-40.5884	-10.6812
-0.2428	1.0078	0.5453	-99.0601	-42.9688	-3.1738
-0.2401	0.9999	0.5209	-80.2002	-39.1846	3.7842
-0.2220	0.9921	0.4972	-63.0493	-31.6162	9.5215
-0.2102	0.9941	0.4673	-48.4619	-22.5220	12.4512
-0.1996	0.9932	0.4343	-35.5835	-12.6953	13.1836
-0.1661	0.9803	0.3911	-25.8789	-4.5776	11.6577
-0.1348	0.9584	0.3519	-19.7754	0.7324	8.3618
-0.1196	0.9413	0.3220	-16.5405	4.6997	3.9062
-0.1135	0.9308	0.3021	-15.2588	7.9956	-1.4648
-0.0945	0.9048	0.2903	-14.7095	9.7046	-7.8735
-0.0719	0.8859	0.2777	-15.5029	8.6060	-14.9536
-0.0641	0.8810	0.2448	-18.4326	4.0894	-21.4844
-0.0667	0.8729	0.2156	-23.1934	-1.7700	-26.6724
-0.0939	0.8615	0.2063	-29.6021	-6.2866	-29.9072
-0.1206	0.8622	0.1876	-35.7056	-7.3853	-31.8604
