aX	aY	aZ	gX	gY	gZ	
-0.9222	0.0231	0.1919	-118.6523	-3.1128	8.7891
-0.9570	0.0247	0.1826	-115.7837	-7.0801	9.8267
-0.9800	0.0254	0.1967	-113.4644	-11.1694	10.5591
-0.9874	0.0269	0.2111	-110.1074	-13.2446	11.8408
-0.9843	0.0217	0.2091	-105.3467	-13.2446	12.3291
-0.9745	0.0188	0.2007	-99.9756	-11.3525	11.5967
-0.9626	0.0096	0.1929	-94.7876	-9.3384	10.5591
-0.9469	-0.0006	0.1923	-89.5996	-7.7515	9.7656
-0.9408	-0.0059	0.1948	-85.2051	-7.5684	9.2773
-0.9360	-0.0122	0.1926	-81.3599	-8.0566	9.3994
-0.9348	-0.0150	0.1826	-77.8809	-9.3384	10.3760
-0.9447	-0.0121	0.1703	-75.0732	-10.1929	11.4746
-0.9565	-0.0070	0.1644	-73.3032	-10.0708	12.5732
-0.9478	-0.0095	0.1602	-71.9604	-9.0942	13.3057
-0.9185	-0.0133	0.1548	-70.8618	-8.0566	13.6108
-0.9043	-0.0059	0.1561	-70.5566	-8.8501	13.7329
-0.9130	0.0040	0.1577	-69.8853	-9.6436	13.6719
-0.9203	0.0172	0.1503	-69.3970	-10.0708	14.0381
-0.8912	0.0496	0.1594	-70.9229	-9.6436	15.1367
-0.8540	0.0999	0.1830	-75.7446	-9.5215	16.0522
-0.8110	0.1411	0.2319	-83.0688	-12.3291	18.2495
-0.7479	0.1741	0.2970	-91.2476	-20.5688	23.8037
-0.7268	0.2444	0.3848	-95.8252	-35.5225	29.2969
-0.8003	0.3016	0.4260	-91.8579	-55.2979	32.6538
-0.9569	0.3622	0.6117	-80.8716	-76.5381	38.5132
-1.1890	0.4210	0.9554	-52.6123	-99.1211	51.7578
-1.3568	0.5009	1.3019	5.5542	-103.3325	74.1577
-1.5818	0.5569	1.5367	107.8491	-83.2520	101.9897
-1.7755	0.7068	1.7831	255.3711	-39.2456	136.4746
-1.6090	1.1418	1.7284	442.1387	51.8799	162.6587
-1.1753	1.7294	1.1571	655.4565	181.2744	151.6724
-0.6818	1.6897	0.3085	853.9429	282.4707	85.3271
-0.9325	1.5768	-0.4691	1000.4883	332.4585	-17.0288
-1.6134	1.6039	-1.3837	1087.9517	377.4414	-104.0649
-1.6829	1.4584	-1.8646	1092.8345	446.7163	-137.4512
-0.4550	0.7520	-2.0160	1012.6953	485.1685	-85.5103
0.3502	-0.0878	-1.3798	835.3882	424.0112	6.5918
0.2241	-0.6787	-0.7272	637.2681	288.8794	57.6172
0.0710	-1.1543	-0.7430	442.3828	83.6182	69.0918
-0.8285	-1.5088	-1.0432	252.9907	-118.1030	24.9634
-1.6667	-1.1398	-1.2140	80.8716	-219.2993	-72.2656
-1.9552	-0.2480	-1.1353	-43.7622	-239.8682	-176.3306
-1.6031	0.2365	-1.0231	-106.3843	-204.2847	-234.1919
-1.3315	0.4939	-0.8346	-122.1924	-156.6772	-241.3940
-1.4371	0.6202	-0.6881	-113.6475	-144.2871	-199.3408
-1.7112	0.4390	-0.7007	-93.6279	-134.5215	-132.7515
-1.8677	0.1649	-0.7031	-76.5381	-97.3511	-67.7490
-1.6659	0.0192	-0.5924	-71.2891	-43.2129	-15.2588
-1.3188	-0.0896	-0.4702	-76.0498	7.6294	21.2402
-1.1064	-0.2312	-0.3783	-87.2803	43.6401	41.4429
-0.9956	-0.3461	-0.3224	-107.2998	60.6689	49.6216
-0.8917	-0.4054	-0.2600	-135.8643	59.0820	50.1099
-0.8201	-0.3807	-0.1790	-168.9453	41.5649	44.1284
-0.8031	-0.3015	-0.1691	-199.6460	12.9395	32.8979
-0.8120	-0.2172	-0.2062	-223.7549	-14.9536	19.5313
-0.8552	-0.1705	-0.2012	-238.5254	-33.2642	6.8970
-0.8807	-0.1298	-0.1666	-243.2861	-43.0908	-2.1973
-0.9083	-0.0984	-0.1581	-242.0044	-47.2412	-7.5684
-0.9661	-0.0715	-0.1661	-238.9526	-47.4243	-11.4746
-1.0781	-0.0283	-0.1146	-237.0605	-43.5181	-14.0991
-1.1608	-0.0366	-0.0297	-233.8867	-29.8462	-10.0708
-1.1643	-0.0764	0.0111	-228.7598	-9.9487	-9.7046
-1.0897	-0.0800	0.0371	-226.3794	8.2397	-4.3945
-1.0054	-0.0792	0.0435	-225.1587	26.8555	0.9766
-0.9052	-0.0964	0.0389	-226.4404	36.6211	1.8311
-0.8137	-0.1089	0.0421	-231.6284	30.9448	1.0376
-0.8022	-0.0992	0.0522	-237.9150	14.5264	-1.2817
-0.8784	-0.0817	0.0643	-242.7979	-4.6387	-3.7842
-0.9628	-0.0549	0.0627	-244.5679	-21.2402	-5.6152
-1.0050	-0.0469	0.0574	-244.4458	-28.1982	-5.5542
-1.0027	-0.0137	0.0797	-242.4316	-27.7100	-2.6245
-1.0026	0.0118	0.0913	-237.2437	-27.0386	1.2207
-1.0299	0.0476	0.1521	-229.2480	-28.1982	3.2349
-1.0240	0.0004	0.1851	-217.4683	-31.4331	4.6387
-1.0179	0.0129	0.2301	-204.0405	-32.2876	4.7607
-1.0527	0.0220	0.2413	-188.0493	-31.7993	4.3945
-1.0443	0.0156	0.2390	-172.7905	-28.7476	3.4180
-1.0269	0.0166	0.2372	-159.9121	-25.3296	2.4414
-1.0112	0.0157	0.2273	-148.8037	-21.4844	2.1362
-1.0106	0.0116	0.2200	-138.7329	-18.3716	2.0752
-1.0120	0.0066	0.2152	-129.8828	-15.0757	1.7700
-0.9928	-0.0034	0.2080	-121.3989	-12.3901	1.8311
-0.9731	-0.0168	0.2047	-113.4033	-11.2305	2.2583
-0.9476	-0.0249	0.2002	-105.2856	-11.4136	2.8687
-0.9362	-0.0278	0.1777	-97.6563	-13.1836	3.6621
-0.9568	-0.0276	0.1705	-91.6748	-15.2588	5.7373
-0.9646	-0.0168	0.1625	-86.3037	-17.3950	8.6670
-0.9658	-0.0101	0.1537	-82.3975	-18.2495	10.8643
-0.9666	-0.0048	0.1527	-79.8950	-17.0898	12.2070
-0.9694	-0.0026	0.1553	-77.9419	-14.4043	13.2446
-0.9510	-0.0084	0.1483	-76.4771	-11.2305	13.6108
-0.9268	-0.0143	0.1501	-75.8667	-9.1553	13.1836
-0.9121	-0.0165	0.1461	-75.8667	-7.9956	12.6343
-0.8909	-0.0209	0.1437	-75.4395	-8.9722	11.8408
-0.8699	-0.0251	0.1454	-76.1719	-11.3525	10.4980
-0.8629	-0.0217	0.1520	-77.3315	-14.5874	9.2773
-0.8594	-0.0061	0.1639	-78.6743	-17.9443	9.2163
-0.8578	0.0143	0.1682	-79.3457	-21.3623	9.6436
-0.8575	0.0334	0.1820	-79.2236	-25.8179	10.7422
-0.8490	0.0754	0.2096	-78.7964	-31.0669	12.5732
-0.8762	0.1545	0.2662	-75.6836	-36.8652	15.9302
-0.8894	0.2146	0.3556	-68.9697	-44.2505	21.9116
-0.9291	0.3043	0.5757	-56.5796	-57.3120	31.9824
-1.0344	0.4279	0.8733	-28.0762	-80.5664	46.5088
-1.0955	0.5089	1.0906	23.1323	-100.9521	61.1572
-1.2328	0.6273	1.3513	101.2573	-101.1963	74.0967
-1.3932	0.7780	1.5326	207.1533	-83.0078	88.0737
-1.3843	1.0309	1.5999	334.2285	-39.3066	106.5674
-1.2219	1.3972	1.4104	477.2339	38.9404	114.1968
-0.9934	1.6259	0.9977	630.3711	138.4888	92.9565
-0.7577	1.5704	0.5070	776.3672	223.4497	42.8467
-0.7737	1.4672	-0.0536	898.9868	276.0010	-28.3203
-1.0781	1.4987	-0.7816	984.8633	323.1201	-97.3511
-1.3849	1.5929	-1.2214	1022.0947	380.2490	-131.3477
-1.0457	1.3164	-1.6494	1013.9160	415.5273	-116.5771
-0.4071	0.7778	-1.6401	926.6968	400.6958	-52.7954
-0.0597	0.0967	-1.1617	774.1699	313.2935	13.8550
-0.0405	-0.4563	-0.8069	595.3369	155.3345	43.4570
-0.5051	-0.7521	-0.9517	416.4429	-40.1611	40.5273
-1.6038	-0.9236	-1.2899	244.2017	-186.5234	-7.6904
-2.4137	-0.5013	-1.4316	89.9658	-235.8398	-93.1396
-2.2819	0.1630	-1.2924	-14.1602	-225.4639	-164.6729
-1.7675	0.3861	-1.1925	-67.3218	-176.5747	-194.4580
-1.6669	0.4581	-1.1256	-84.1064	-116.2109	-187.1338
-1.7151	0.4569	-1.1121	-86.5479	-72.6929	-146.5454
-1.6567	0.3105	-1.0660	-89.7827	-35.2783	-94.3604
-1.4778	0.1085	-0.8773	-95.5811	0.7935	-48.8281
-1.2568	-0.0455	-0.6962	-104.5532	26.3062	-14.3433
-1.0520	-0.1787	-0.5594	-118.8354	38.0859	7.6294
-0.9358	-0.2888	-0.4650	-140.5029	36.4990	20.7520
-0.8932	-0.3531	-0.3911	-169.1284	25.1465	25.5737
-0.8593	-0.3588	-0.3517	-203.0029	8.4229	23.5596
-0.8214	-0.2932	-0.3300	-239.1357	-9.8267	16.3574
-0.8324	-0.2023	-0.3427	-273.2544	-27.5879	5.1880
-0.8757	-0.1232	-0.3491	-302.4902	-45.5933	-4.0283
-0.9302	-0.0383	-0.3596	-325.9277	-62.8052	-10.0708
-1.0417	0.0231	-0.3571	-341.3696	-72.5708	-13.7939
-1.1405	0.0669	-0.3331	-351.6235	-73.1812	-12.5732
-1.1953	0.1527	-0.3422	-356.6284	-61.7676	-6.8359
-1.2408	0.1571	-0.2836	-355.9570	-35.3394	2.3193
-1.1996	0.1113	-0.1677	-351.8677	-11.3525	5.9814
-1.0735	0.0948	-0.0437	-342.8345	5.0659	8.1177
-0.9860	0.1017	0.0350	-328.7964	16.1133	4.2725
-0.9022	0.0795	0.0699	-313.3545	18.3105	-3.2349
-0.7848	0.0707	0.0841	-300.5981	11.9629	-11.5967
-0.7445	0.0796	0.1147	-291.0156	-0.7324	-22.0947
-0.8684	0.0979	0.1630	-280.2734	-18.8599	-31.1890
-1.0009	0.1138	0.2106	-265.7471	-33.9966	-35.3394
-1.0587	0.1438	0.2494	-247.4365	-38.5132	-34.6680
-1.0826	0.1550	0.2759	-226.5015	-35.2783	-29.7852
-1.0808	0.1470	0.2930	-204.1626	-30.8228	-21.4844
-1.0734	0.1462	0.3086	-181.1523	-28.2593	-11.9629
-1.0624	0.1232	0.3201	-157.2266	-28.7476	-3.6011
-1.0477	0.1133	0.3413	-134.0942	-29.2358	4.0894
-1.0580	0.1071	0.3373	-110.7178	-28.2593	12.7563
-1.0564	0.1013	0.3142	-87.7686	-27.0386	21.3013
-1.0413	0.0929	0.2786	-66.8945	-24.5972	27.9541
-1.0181	0.0774	0.2360	-48.8281	-20.2026	32.4707
-0.9930	0.0565	0.1964	-34.1187	-16.0522	34.8511
-0.9647	0.0320	0.1571	-22.3999	-13.5498	35.5835
-0.9438	0.0105	0.1149	-13.5498	-13.1836	34.7900
-0.9359	-0.0126	0.0748	-8.1177	-13.8550	33.0811
-0.9264	-0.0385	0.0377	-6.2866	-15.3198	31.4941
-0.9310	-0.0637	0.0028	-6.3477	-17.0288	30.0903
-0.9299	-0.0835	-0.0247	-8.5449	-18.1885	29.0527
-0.9258	-0.1028	-0.0504	-13.0615	-19.4702	28.0762
-0.9271	-0.1134	-0.0634	-19.8364	-20.6299	28.0151
-0.9363	-0.1161	-0.0703	-27.5269	-20.5688	28.2593
-0.9312	-0.1174	-0.0732	-35.2783	-19.1650	27.7100
-0.9016	-0.1219	-0.0725	-43.1519	-17.9443	26.7944
-0.8680	-0.1261	-0.0753	-51.6357	-17.6392	25.8179
-0.8538	-0.1149	-0.0833	-60.1807	-18.3716	24.7192
-0.8585	-0.0975	-0.0734	-69.5190	-19.1650	23.6816
-0.8383	-0.0802	-0.0537	-79.9561	-21.0571	22.8882
-0.7997	-0.0415	-0.0093	-90.9424	-22.3999	20.0195
-0.8015	0.0104	0.0441	-99.3652	-21.7896	14.8926
-0.9086	0.0925	0.1355	-102.4780	-20.8130	10.1318
-1.0831	0.1222	0.2582	-96.7407	-21.6064	12.5122
-1.1259	0.1716	0.4630	-81.7261	-25.9399	23.8037
-0.9861	0.2498	0.7576	-51.2085	-42.9688	44.3115
-1.0892	0.3329	1.0793	9.5215	-62.0117	70.4346
-1.6042	0.3971	1.2572	111.9385	-54.7485	95.7642
-1.8132	0.5375	1.2767	243.4082	8.8501	123.1689
-1.5608	0.9165	1.2878	386.1694	110.7788	150.0244
-1.2114	1.3256	1.0208	543.5181	216.5527	147.6440
-1.0118	1.2676	0.3682	704.7119	300.4150	99.0601
-1.0748	1.1046	-0.2806	833.7402	368.8965	16.7236
-1.3970	1.2792	-0.7972	920.7153	429.3823	-62.5610
-1.6129	1.1747	-1.6949	968.3228	480.1636	-104.6753
-0.7454	0.6366	-1.9542	919.0674	506.0425	-82.9468
0.6582	-0.3011	-1.6260	770.6299	433.9600	-9.5215
0.5548	-0.9084	-1.0475	566.1011	261.0474	27.7710
-0.4080	-1.0925	-0.7532	353.4546	48.1567	30.5786
-1.1716	-0.9836	-0.8903	174.1333	-144.7144	10.3149
-1.5728	-0.7169	-1.2723	41.0156	-260.9863	-48.4619
-1.8831	-0.2797	-1.2764	-57.6172	-304.9927	-117.7979
-1.9359	-0.0448	-1.2061	-113.2813	-278.3203	-157.5317
-1.8146	0.1090	-1.0187	-129.2725	-190.8569	-158.0811
-1.5256	0.1646	-0.8397	-121.7651	-105.1025	-127.3804
-1.3280	0.0081	-0.7596	-105.7739	-40.3442	-87.1582
-1.2458	-0.2158	-0.6810	-98.5107	1.9531	-53.2227
-1.1927	-0.2791	-0.5792	-108.0322	26.1841	-32.1045
-1.0571	-0.3057	-0.5066	-128.3569	34.6680	-18.6157
-0.9517	-0.3334	-0.4640	-156.9214	30.8838	-9.7656
-0.9845	-0.3353	-0.4390	-190.5518	20.2637	-3.3569
-1.0151	-0.3088	-0.4258	-225.9521	10.4370	1.7090
-0.9962	-0.2534	-0.4095	-260.5591	5.9814	6.2256
-0.9447	-0.1631	-0.3693	-290.7104	6.5918	6.8970
-0.8920	-0.0851	-0.3060	-312.8662	4.6997	2.1362
-0.8680	-0.0317	-0.3192	-325.1343	-1.5869	-7.3242
-0.9331	-0.0420	-0.3231	-331.6650	-7.7515	-12.7563
-1.0297	-0.0334	-0.2069	-333.0688	-21.6064	-16.2354
-1.0830	0.0172	-0.0408	-325.9277	-33.8745	-17.0898
-1.1184	0.0160	0.1051	-309.1431	-29.9072	-14.5874
-1.1058	-0.0015	0.1947	-286.9873	-18.8599	-11.9019
-1.0505	-0.0056	0.2180	-265.1367	-8.3008	-9.8877
-0.9655	-0.0066	0.1973	-247.5586	-3.9673	-7.5684
-0.9052	-0.0056	0.1797	-235.9619	-6.3477	-7.8735
-0.8823	0.0062	0.1741	-227.8442	-11.5967	-11.8408
-0.8751	0.0175	0.1680	-220.7642	-18.0664	-18.1885
-0.8979	0.0225	0.1655	-213.5010	-23.6206	-24.1699
-0.9479	0.0258	0.1776	-204.4067	-26.1841	-30.0293
-0.9858	0.0249	0.2046	-192.5049	-25.6958	-34.6680
-1.0050	0.0238	0.2397	-176.6968	-22.4609	-36.4380
-1.0176	0.0242	0.2646	-157.8369	-18.7378	-35.3394
-1.0270	0.0226	0.2689	-137.8174	-14.8315	-32.4097
-1.0385	0.0269	0.2592	-118.5303	-11.3525	-27.2827
-1.0298	0.0278	0.2501	-100.8911	-7.5684	-21.2402
-1.0043	0.0256	0.2274	-85.6323	-4.7607	-14.8926
-0.9901	0.0283	0.2100	-73.0591	-4.1504	-8.3618
-0.9823	0.0273	0.1873	-62.3169	-4.5776	-3.1128
-0.9788	0.0254	0.1678	-54.0771	-6.1035	0.6104
-0.9688	0.0117	0.1453	-47.3633	-7.5684	3.1128
-0.9767	0.0033	0.1315	-42.4194	-9.2773	5.0049
-0.9923	-0.0094	0.1241	-38.6963	-10.3149	6.4087
-0.9955	-0.0286	0.1050	-35.2173	-10.5591	8.1787
-0.9928	-0.0414	0.0802	-33.1421	-10.5591	10.9863
-1.0045	-0.0472	0.0692	-32.2876	-10.2539	13.9160
-1.0052	-0.0472	0.0645	-31.6772	-9.8877	16.1133
-0.9915	-0.0513	0.0581	-31.3110	-10.4370	17.3950
-0.9637	-0.0498	0.0598	-32.1045	-11.4136	18.8599
-0.9520	-0.0409	0.0649	-34.1797	-12.2681	20.2026
-0.9556	-0.0360	0.0731	-36.4380	-13.4277	20.8130
-0.9441	-0.0355	0.0715	-38.6353	-15.0146	21.0571
-0.9219	-0.0306	0.0758	-41.1987	-16.8457	21.9116
-0.9077	-0.0269	0.0879	-43.8843	-18.5547	22.5830
-0.8884	-0.0240	0.1030	-46.1426	-20.4468	22.7661
-0.8652	-0.0137	0.1144	-48.1567	-23.4375	22.5830
-0.8522	-0.0024	0.1222	-49.1943	-26.4282	22.3999
-0.8414	0.0203	0.1320	-50.2930	-29.7852	21.9116
-0.8447	0.0437	0.1456	-50.6592	-32.5928	20.7520
-0.8451	0.0651	0.1547	-49.9878	-34.3018	18.6768
-0.8135	0.0966	0.1674	-48.5840	-36.3159	16.7847
-0.8309	0.1510	0.2070	-46.5698	-39.6118	14.8926
-0.9054	0.2264	0.3014	-42.2974	-45.1050	16.1743
-1.0088	0.2832	0.4072	-31.6772	-48.8281	23.3765
-1.0891	0.3086	0.6000	-11.7798	-50.1709	37.3535
-1.1600	0.4049	0.8889	22.0337	-53.2227	57.1899
-1.1786	0.5063	1.0718	83.1909	-54.9316	81.2378
-1.3253	0.5709	1.0288	173.2178	-35.5835	100.8911
-1.4513	0.5537	0.9137	279.2969	14.3433	115.5396
-1.3282	0.6667	0.9287	392.8833	85.5713	128.3569
-1.1401	0.9365	0.7319	515.6860	166.3818	127.1973
-0.9591	1.0955	0.3088	643.0054	241.8213	101.3794
-0.9408	1.0038	-0.2240	758.5449	290.7104	48.3398
-1.1010	0.8994	-0.6427	842.9565	328.6133	-21.6675
-1.2775	1.1803	-0.8259	895.2637	364.9292	-80.5664
-1.1145	1.0223	-1.3569	915.7104	369.9951	-94.7876
-0.4232	0.5771	-1.5326	856.5674	328.4912	-66.2842
0.0006	-0.2616	-1.4780	721.6797	224.4263	-12.0850
-0.2920	-0.9619	-1.1775	527.5879	100.7080	31.9214
-1.1299	-1.0160	-1.1211	320.4956	-15.6860	50.2930
-1.8361	-0.7383	-0.9813	148.5596	-89.4775	17.7612
-2.0326	-0.3611	-1.0984	38.9404	-127.9297	-37.6587
-1.8265	-0.1565	-1.1086	-22.4609	-145.8130	-83.2520
-1.5243	-0.1976	-1.1464	-62.6831	-125.1831	-112.7319
-1.3899	-0.1831	-1.0151	-91.4307	-74.2188	-120.0562
-1.3008	-0.0741	-0.8373	-109.2529	-32.9590	-104.8584
-1.2360	-0.0549	-0.7610	-118.0420	-9.0942	-77.8198
-1.2361	-0.1692	-0.6969	-126.9531	3.4790	-50.2930
-1.2141	-0.2190	-0.5518	-142.4561	11.9019	-31.4941
-1.1187	-0.2152	-0.4689	-160.7056	13.6108	-17.3950
-1.0153	-0.2216	-0.3905	-179.9316	10.6201	-4.3335
-0.9884	-0.2334	-0.3284	-199.2187	2.6245	7.0801
-1.0105	-0.2380	-0.2706	-217.7734	-6.1035	17.5171
-1.0126	-0.2238	-0.2041	-234.5581	-11.4746	26.1230
-0.9539	-0.1976	-0.1537	-247.8638	-11.9019	31.1279
-0.8573	-0.1930	-0.1185	-257.0801	-9.9487	30.8228
-0.7532	-0.1917	-0.1002	-264.0991	-11.2915	27.0996
-0.7172	-0.1803	-0.1063	-269.4092	-19.5313	20.7520
-0.7635	-0.1534	-0.1084	-273.6206	-32.9590	10.3760
-0.8635	-0.1245	-0.0867	-276.1841	-43.3960	-2.0752
-0.9366	-0.0863	-0.0441	-275.3296	-46.6919	-15.4419
-1.0098	-0.0428	0.0093	-270.6299	-41.5039	-25.5737
-1.0951	-0.0339	0.0623	-260.1318	-28.9917	-30.3955
-1.0919	-0.0428	0.1182	-246.3379	-14.5264	-29.4800
-1.0388	-0.0552	0.1455	-231.8726	-4.2114	-23.7427
-1.0073	-0.0540	0.1694	-218.3838	1.7090	-15.4419
-0.9779	-0.0553	0.1741	-205.8716	2.8687	-7.6904
-0.9520	-0.0646	0.1602	-195.4956	-2.5635	-0.7935
-0.9318	-0.0625	0.1537	-188.3545	-11.2915	4.6997
-0.9269	-0.0587	0.1580	-183.5937	-20.9961	7.5684
-0.9138	-0.0571	0.1578	-179.0161	-31.0669	8.5449
-0.9106	-0.0537	0.1482	-174.1943	-40.8325	7.6294
-0.9473	-0.0417	0.1418	-168.9453	-47.9126	5.0049
-1.0007	-0.0426	0.1364	-161.8042	-51.1475	1.4648
-1.0553	-0.0437	0.1324	-152.9541	-49.8657	-1.6479
-1.0942	-0.0421	0.1403	-143.0664	-44.0063	-2.4414
-1.0786	-0.0452	0.1494	-132.1411	-34.3018	-1.1597
-1.0470	-0.0531	0.1530	-120.9717	-25.0244	1.2207
-1.0170	-0.0613	0.1514	-109.4360	-19.2261	3.8452
-0.9792	-0.0658	0.1519	-98.7549	-15.8081	6.5918
-0.9457	-0.0643	0.1458	-89.7827	-14.8926	8.6060
-0.9430	-0.0570	0.1420	-82.0923	-16.3574	9.8267
-0.9539	-0.0447	0.1499	-75.3784	-17.8223	9.8877
-0.9576	-0.0360	0.1547	-69.5190	-18.7378	8.4229
-0.9594	-0.0345	0.1455	-63.5376	-18.6768	6.8359
-0.9620	-0.0391	0.1317	-58.2275	-17.4561	4.6387
-0.9465	-0.0375	0.1156	-54.6265	-16.5405	2.9297
-0.9380	-0.0430	0.1030	-52.5513	-16.1133	1.8921
-0.9403	-0.0444	0.0995	-51.6357	-16.1133	1.0986
-0.9442	-0.0474	0.0945	-50.9644	-16.6626	0.7935
-0.9291	-0.0411	0.0925	-51.2695	-17.4561	1.8311
-0.9185	-0.0189	0.1017	-52.2461	-19.0430	3.6011
-0.9174	0.0045	0.1193	-53.5278	-20.6909	4.6997
-0.9019	0.0358	0.1373	-54.4434	-22.0947	5.5542
-0.8834	0.0770	0.1587	-54.8706	-24.3530	5.7983
-0.8805	0.1396	0.1989	-55.2368	-26.7944	5.3711
-0.8834	0.2305	0.2477	-55.0537	-28.7476	5.3711
-0.9297	0.2953	0.3018	-51.3306	-31.9214	7.0190
-1.0112	0.3551	0.4042	-42.0532	-38.5132	11.4746
-1.1165	0.3774	0.5894	-22.8271	-44.0063	19.7144
-1.2018	0.4089	0.9036	14.5874	-38.0249	34.4849
-1.3175	0.4559	1.0348	83.6182	-24.3530	52.0020
-1.4969	0.4492	1.0538	182.3730	4.8828	68.9697
-1.5857	0.5393	1.1975	300.7202	51.8188	88.0127
-1.3842	0.9254	1.2318	437.0117	121.3989	101.9287
-1.0842	1.2393	0.8372	590.8203	209.1064	86.9751
-0.8744	1.1644	0.2952	733.3374	275.3906	36.4380
-0.8854	1.1440	-0.1505	839.9048	313.3545	-36.4380
-1.0355	1.2804	-0.6620	910.4004	338.1348	-100.8911
-1.1559	1.0913	-1.1400	926.8799	349.9146	-131.1035
-0.8000	0.6976	-1.2577	878.8452	351.3184	-114.5630
-0.2816	0.0953	-1.1300	770.5078	306.5796	-53.1616
-0.2479	-0.3511	-0.7205	620.0562	217.2241	2.3804
-0.4684	-0.4070	-0.4594	479.8584	102.7222	29.6631
-0.5867	-0.5271	-0.6785	365.6006	-23.0713	19.8364
-0.9579	-0.7595	-0.9263	254.8828	-127.5635	-19.3481
-1.5121	-0.7079	-1.1088	142.2119	-186.3403	-70.6177
-1.7385	-0.2629	-1.0640	45.8984	-197.9980	-110.5347
-1.6891	0.0222	-0.9979	-13.3667	-170.4102	-125.4883
-1.5605	0.0994	-0.9685	-41.3208	-117.7368	-121.3989
-1.4575	0.0797	-0.8997	-59.3872	-73.1812	-100.8911
-1.3820	-0.0223	-0.8168	-76.4160	-46.1426	-71.9604
-1.2874	-0.1666	-0.7622	-96.4355	-27.9541	-45.6543
-1.1350	-0.2786	-0.6985	-122.9858	-14.4653	-25.2686
-0.9747	-0.3427	-0.6317	-155.8838	-11.2915	-9.5215
-0.9126	-0.3335	-0.5569	-192.9321	-17.7612	-1.9531
-0.8828	-0.3062	-0.5178	-227.7832	-30.2124	-0.1221
-0.8661	-0.2786	-0.5118	-259.5215	-43.5181	-0.8545
-0.9137	-0.2166	-0.4938	-286.9263	-56.2134	-2.1973
-0.9756	-0.1290	-0.4984	-307.0068	-63.7817	-4.6387
-1.0065	-0.0684	-0.5007	-321.0449	-59.6924	-9.0942
-1.0150	-0.0150	-0.4199	-330.2002	-49.1943	-11.1694
-0.9988	0.0189	-0.3136	-331.5430	-38.8184	-8.3008
-0.9923	0.0011	-0.2159	-325.8057	-33.4473	-4.1504
-1.0265	-0.0411	-0.1656	-316.5894	-33.6914	-3.2349
-1.0828	-0.0588	-0.1332	-309.4482	-31.7383	-2.6245
-1.1270	-0.0648	-0.1338	-304.5654	-26.0620	-5.4321
-1.0854	-0.0205	-0.1075	-303.4058	-18.7378	-10.0708
-1.0507	0.0463	-0.0304	-302.0630	-9.4604	-11.7798
-0.9818	0.0023	-0.0359	-296.9360	-4.7607	-15.8081
-0.9095	0.0229	-0.0100	-292.9077	-4.8218	-21.1182
-0.9166	0.0468	0.0245	-287.6587	-14.8926	-26.0010
-0.9683	0.0547	0.0852	-280.2734	-26.9165	-30.7617
-1.0238	0.0608	0.1537	-268.8599	-34.4849	-33.9355
-1.0707	0.0649	0.1964	-253.7842	-36.5601	-34.2407
-1.0836	0.0786	0.2264	-236.0229	-33.3252	-32.1655
-1.0679	0.0830	0.2512	-217.5293	-27.4048	-28.7476
-1.0592	0.0900	0.2585	-198.0591	-21.1182	-25.2686
-1.0480	0.0923	0.2672	-178.4058	-16.4185	-21.4233
-1.0400	0.0903	0.2761	-159.1187	-12.8784	-18.7378
-1.0261	0.0883	0.2788	-140.5640	-9.9487	-16.9067
-1.0189	0.0753	0.2726	-122.5586	-7.9346	-15.7471
-0.9965	0.0563	0.2617	-105.2246	-7.3242	-14.6484
-0.9939	0.0488	0.2361	-89.2334	-9.0332	-11.7187
-1.0217	0.0485	0.2163	-74.7070	-12.7563	-7.6904
-1.0508	0.0421	0.2009	-61.8896	-16.2354	-3.8452
-1.0575	0.0306	0.1871	-50.5371	-17.5171	0.8545
-1.0470	0.0253	0.1696	-40.4663	-17.8833	6.9580
-1.0447	0.0228	0.1488	-31.6772	-17.9443	12.8174
-1.0457	0.0146	0.1288	-24.1699	-16.1133	17.6392
-1.0376	0.0015	0.1104	-17.7612	-12.5732	21.3013
-1.0029	-0.0115	0.0942	-12.9395	-8.9722	23.4375
-0.9698	-0.0189	0.0865	-9.6436	-6.1646	24.4751
-0.9528	-0.0283	0.0771	-6.9580	-4.3945	23.5596
-0.9481	-0.0476	0.0618	-4.6387	-3.5400	20.9961
-0.9290	-0.0635	0.0319	-3.1738	-3.6621	18.4326
-0.9409	-0.0630	0.0140	-3.3569	-4.5166	16.2354
-0.9611	-0.0649	0.0101	-4.6997	-4.3945	14.0991
-0.9543	-0.0649	0.0194	-7.3242	-4.0894	12.1460
-0.9152	-0.0526	0.0356	-11.4746	-4.9438	12.0850
-0.8978	-0.0271	0.0533	-16.1743	-7.3242	13.1836
-0.8854	0.0132	0.0804	-22.0337	-11.2915	14.7705
-0.8593	0.0797	0.1332	-29.8462	-17.2729	17.2729
-0.8553	0.1417	0.1909	-36.4990	-23.6816	19.6533
-0.9032	0.1957	0.2368	-38.0249	-30.2734	21.9116
-0.9075	0.2054	0.2626	-33.4473	-35.1563	25.5127
-0.9142	0.2134	0.4102	-23.4375	-40.5273	30.4565
-1.0457	0.2330	0.5773	-0.1831	-46.5698	38.6353
-1.1896	0.2761	0.7794	42.1753	-41.5649	46.5698
-1.1813	0.2831	0.8525	106.0181	-22.8271	59.2041
-1.2344	0.3240	0.7977	190.1855	1.9531	74.2188
-1.2350	0.4244	0.8029	282.6538	36.5601	86.4258
-1.1198	0.5294	0.7592	382.7515	83.6792	92.5903
-0.8307	0.6238	0.5229	488.8306	132.3853	87.1582
-0.6006	0.6604	0.2615	586.5479	160.8276	65.9790
-0.5538	0.7477	0.0437	664.6729	159.1187	36.1938
-0.6622	0.8831	-0.2268	725.2808	137.5122	11.4746
-0.8311	0.8699	-0.5155	761.5356	116.8213	-5.6152
-0.9407	0.8148	-0.5809	765.7471	110.4126	-8.4229
-0.8489	0.7681	-0.7218	750.6104	110.5957	0.9155
-0.8824	0.5505	-0.7787	713.1958	96.5576	18.3716
-0.8663	0.2797	-0.7463	651.6113	56.3965	49.4995
-0.8037	0.0479	-0.9133	580.3833	3.6621	76.4160
-0.8622	-0.4753	-1.2075	490.2954	-43.8232	75.2563
-1.1611	-1.0396	-1.3835	368.1641	-73.7915	53.5278
-1.5382	-0.9873	-1.3300	230.2856	-69.5190	26.3672
-1.5564	-0.5321	-1.2031	111.3892	-38.5742	-6.3477
-1.3335	-0.1400	-1.0962	30.1514	-7.6904	-38.6353
-1.1398	0.0912	-0.9746	-14.1602	5.8594	-61.7065
-1.0836	0.1655	-0.8635	-33.2031	-0.6104	-67.9321
-1.1335	0.0824	-0.8118	-40.7715	-14.3433	-58.5327
-1.2063	-0.0316	-0.7408	-46.4478	-19.7754	-40.1611
-1.2019	-0.1162	-0.6421	-54.0771	-12.3901	-19.4702
-1.1339	-0.1716	-0.5566	-62.6221	5.5542	-2.9297
-1.0297	-0.2208	-0.4696	-70.4346	26.3062	7.8125
-0.9232	-0.2563	-0.3798	-77.0874	41.1377	12.8784
-0.8380	-0.3020	-0.3230	-83.2520	46.8140	12.4512
-0.8008	-0.3467	-0.2937	-91.2476	44.0674	8.1787
-0.7811	-0.3596	-0.2739	-101.4404	36.9873	1.9531
-0.7314	-0.3627	-0.2603	-113.6475	25.2075	-4.3945
-0.6760	-0.3890	-0.2731	-127.5024	6.4697	-9.4604
-0.6493	-0.3958	-0.3188	-144.2871	-16.1133	-14.2822
-0.6953	-0.3463	-0.4012	-163.6963	-38.3301	-20.3247
-0.7856	-0.2886	-0.4342	-183.1055	-58.1665	-27.4658
-0.8398	-0.2358	-0.4441	-202.4536	-72.9980	-33.3862
-0.8987	-0.1870	-0.4507	-219.4824	-77.0874	-37.9639
-0.9895	-0.1453	-0.4431	-233.8867	-71.5942	-41.9922
-1.0767	-0.1067	-0.3975	-246.5820	-60.7910	-44.2505
-1.1450	-0.0620	-0.3652	-254.4556	-45.3491	-44.0063
-1.1967	-0.0375	-0.3497	-256.7139	-25.2075	-41.0156
-1.2234	-0.0371	-0.3184	-254.6387	-2.3804	-33.6304
-1.2007	-0.0728	-0.2839	-251.3428	21.7285	-20.9351
-1.0902	-0.0833	-0.2437	-249.2065	37.5977	-12.0239
-0.9608	-0.0853	-0.2061	-246.9482	42.6025	-5.7373
-0.8561	-0.0977	-0.1658	-244.2017	39.1235	-3.8452
-0.8007	-0.1012	-0.1613	-242.6147	27.4048	-7.0801
-0.8562	-0.0878	-0.1404	-241.2720	11.3525	-13.7939
-0.9490	-0.0668	-0.0765	-237.3657	-5.0049	-19.9585
-1.0414	-0.0551	-0.0143	-228.6377	-16.9678	-24.4141
-1.0822	-0.0339	0.0513	-215.5151	-18.7988	-26.1841
-1.0813	-0.0131	0.1166	-198.6084	-11.2915	-24.7192
-1.0720	-0.0131	0.1974	-178.4058	-3.9673	-20.5078
-1.0536	-0.0280	0.2566	-156.3110	-0.0610	-14.0381
-1.0142	-0.0470	0.2750	-133.4839	2.1973	-8.1177
-0.9904	-0.0616	0.2606	-112.6709	1.1597	-2.9907
-0.9890	-0.0669	0.2260	-95.1538	-2.0142	0.6714
-0.9791	-0.0785	0.1898	-82.0923	-6.1646	2.5024
-0.9653	-0.0907	0.1605	-74.4019	-11.5967	3.8452
-0.9614	-0.0898	0.1310	-70.0684	-16.2964	4.7607
-0.9592	-0.0892	0.0978	-68.7256	-19.4092	4.8828
-0.9464	-0.0979	0.0724	-69.6411	-21.2402	4.2725
-0.9418	-0.1030	0.0732	-71.9604	-23.1323	2.8076
-0.9609	-0.0947	0.0857	-73.9136	-25.0244	1.5259
-0.9835	-0.0881	0.0857	-75.0122	-26.3672	0.0610
-0.9812	-0.0881	0.0825	-76.1719	-27.5879	0.2441
-0.9633	-0.0797	0.0902	-78.8574	-27.5879	1.7700
-0.9480	-0.0704	0.1017	-81.8481	-29.1748	4.6387
-0.9182	-0.0586	0.1107	-84.1675	-31.0669	7.2021
-0.8915	-0.0376	0.1351	-85.8765	-33.3252	8.1177
-0.9192	0.0092	0.1776	-86.0596	-37.7197	8.5449
-0.9187	0.0431	0.2142	-83.1909	-41.5039	10.3149
-0.9032	0.0742	0.2528	-76.9653	-42.3584	13.1226
-0.9453	0.0925	0.3204	-63.6597	-43.7622	16.7847
-1.0065	0.0992	0.4703	-40.1611	-43.8232	23.5596
-1.1434	0.1129	0.6526	-1.2207	-38.0859	33.1421
-1.2001	0.1470	0.7866	58.1055	-20.8130	41.9922
-1.1356	0.2004	0.8348	135.6812	3.7231	51.1475
-1.0587	0.2716	0.8073	225.4028	28.7476	58.4106
-0.9293	0.3514	0.6755	319.9463	58.8989	56.3354
-0.7041	0.4294	0.4591	410.9497	85.4492	45.8984
-0.6012	0.4186	0.2747	490.2344	92.8345	26.7334
-0.6978	0.4659	0.1809	553.8940	89.2944	2.6855
-0.7914	0.5583	-0.0686	603.9429	91.2476	-17.7002
-0.9719	0.6208	-0.1016	634.3994	102.8442	-31.4331
-1.0305	0.7399	-0.1337	657.4707	117.9810	-30.0293
-0.9792	0.6818	-0.3954	671.1426	130.1270	-16.2964
-0.8856	0.3995	-0.5658	654.2969	127.7466	3.6011
-0.7819	0.1276	-0.5756	602.9663	106.5063	24.4141
-0.7439	-0.1062	-0.6876	531.0669	68.7256	31.3721
-0.7708	-0.4564	-0.8691	443.0542	18.9209	21.4844
-0.8521	-0.7261	-1.0320	339.7217	-26.1230	-0.0610
-0.9647	-0.7269	-1.1207	228.6377	-63.1104	-27.9541
-1.1438	-0.4703	-1.1093	123.1689	-90.0269	-57.5562
-1.3112	-0.1266	-1.0641	39.1235	-97.5342	-80.9326
-1.3201	0.1348	-1.0219	-15.6250	-89.9048	-92.7124
-1.2373	0.2661	-0.9955	-46.5698	-75.9277	-92.8955
-1.2458	0.2958	-0.9233	-63.0493	-65.1855	-82.1533
-1.2897	0.2435	-0.8564	-71.6553	-55.6641	-62.5610
-1.2933	0.1361	-0.7944	-77.6978	-39.6729	-40.6494
-1.2623	0.0337	-0.6888	-83.6792	-17.4561	-21.3013
-1.1880	-0.0344	-0.5928	-90.2100	4.5776	-7.5073
-1.0920	-0.1014	-0.5243	-96.9849	21.6064	0.2441
-1.0377	-0.1654	-0.4763	-105.9570	31.8604	2.4414
-1.0172	-0.2329	-0.4620	-118.9575	36.6821	0.4883
-0.9519	-0.2642	-0.4379	-138.2446	38.3911	-2.4414
-0.8209	-0.2367	-0.4393	-162.7197	35.5225	-6.3477
-0.7400	-0.1707	-0.4525	-187.0728	26.7944	-12.0239
-0.7661	-0.0868	-0.4229	-206.6040	8.3618	-17.9443
-0.8497	-0.0106	-0.3914	-217.8345	-17.2119	-21.2402
-0.9613	0.0114	-0.3622	-219.1162	-40.8325	-21.4233
-1.0529	-0.0067	-0.3274	-215.2100	-53.5278	-17.3950
-1.1298	-0.0203	-0.2933	-209.5947	-49.3774	-7.8125
-1.1775	-0.0986	-0.2904	-204.7729	-28.2593	4.3945
-1.1205	-0.1117	-0.3018	-206.2378	-9.5215	5.9814
-1.0582	-0.1116	-0.3273	-211.9141	7.3853	7.5073
-1.0076	-0.0933	-0.3152	-220.8862	21.6064	5.3711
-0.9529	-0.0819	-0.2838	-229.6753	29.0527	-0.2441
-0.9406	-0.0934	-0.2665	-236.0229	31.0669	-6.9580
-0.9510	-0.0643	-0.2358	-239.1357	29.9683	-12.6953
-0.9634	-0.0361	-0.2468	-236.9995	27.9541	-15.3809
-0.9761	-0.0477	-0.2404	-232.0557	27.1606	-16.9067
-0.9860	-0.0520	-0.1532	-226.3794	25.8789	-17.6392
-1.0028	-0.0542	-0.0693	-215.6372	26.3062	-17.0898
-1.0040	-0.0671	-0.0219	-200.3174	27.0996	-16.1743
-0.9735	-0.0804	0.0026	-184.3262	26.6724	-15.6860
-0.9500	-0.0969	0.0271	-171.2646	24.4141	-16.0522
-0.9297	-0.0953	0.0494	-161.1328	21.6064	-16.2964
-0.9294	-0.0851	0.0605	-152.5269	18.6768	-16.7847
-0.9343	-0.0791	0.0496	-144.1650	16.3574	-17.6392
-0.9420	-0.0803	0.0430	-136.6577	14.0991	-17.8223
-0.9520	-0.0790	0.0500	-130.8594	9.9487	-16.6016
-0.9823	-0.0732	0.0656	-125.4883	6.2256	-15.0146
-1.0492	-0.0706	0.0776	-118.7744	4.4556	-12.9395
-1.0531	-0.0763	0.0752	-110.0464	4.5776	-9.2163
-1.0101	-0.0796	0.0729	-102.6001	6.6528	-5.0049
-0.9548	-0.0792	0.0660	-96.6797	8.4229	-1.4038
-0.9375	-0.0813	0.0701	-91.9189	6.2866	1.5869
-0.9596	-0.0819	0.0850	-86.9141	1.5869	3.0518
-0.9857	-0.0873	0.0797	-80.9937	-1.5869	3.2959
-0.9880	-0.0902	0.0723	-75.5615	-2.8687	3.1738
-0.9866	-0.0930	0.0679	-72.0215	-3.6011	3.9062
-0.9858	-0.0858	0.0652	-69.2749	-3.1128	4.2114
-0.9772	-0.0848	0.0679	-66.5894	-2.3193	4.3335
-0.9548	-0.0918	0.0667	-64.0869	-1.5869	3.7231
-0.9330	-0.0889	0.0686	-62.8052	-1.8921	2.7466
-0.9181	-0.0852	0.0679	-62.3169	-2.4414	1.5259
-0.8977	-0.0831	0.0635	-63.2324	-3.6621	0.8545
-0.8871	-0.0660	0.0674	-66.2842	-5.4932	1.0376
-0.8807	-0.0491	0.0863	-71.0449	-7.5684	1.6479
-0.8606	-0.0276	0.1084	-77.0874	-10.6201	2.8076
-0.8313	0.0018	0.1385	-83.1299	-15.6250	3.5400
-0.8191	0.0338	0.1752	-88.1958	-20.8130	3.9062
-0.8086	0.0685	0.2094	-92.1021	-25.5737	3.7842
-0.7885	0.1071	0.2531	-95.1538	-30.8838	4.6387
-0.7682	0.1431	0.2953	-96.3135	-37.9639	7.3853
-0.8160	0.1809	0.3643	-93.2007	-48.0347	12.1460
-0.9281	0.2461	0.4670	-82.2144	-59.7534	19.3481
-1.0056	0.2632	0.5288	-59.1431	-68.4814	29.2969
-1.0142	0.3157	0.6664	-26.1841	-68.0542	41.5039
-1.1185	0.3431	0.8251	23.9868	-58.2886	57.7393
-1.2755	0.3721	1.0518	100.4028	-43.0908	74.7070
-1.3195	0.4176	1.1249	203.7964	-15.3198	89.9048
-1.1779	0.5773	1.1001	325.0122	26.5503	101.5015
-0.8923	0.7523	0.7953	453.0640	72.4487	99.4263
-0.6340	0.8138	0.3965	572.2046	110.1074	72.7539
-0.7269	0.8645	0.1910	672.6685	124.8779	32.2876
-1.0397	0.9712	-0.2212	757.8735	134.4604	-8.0566
-1.2438	1.0286	-0.5891	810.6689	164.9780	-34.9731
-1.3368	1.0409	-0.7480	829.0405	212.0361	-44.9219
-1.1738	0.9078	-1.0519	822.0215	248.6572	-30.2124
-0.7921	0.4387	-1.2355	763.3057	250.3662	5.7983
-0.2878	-0.2153	-1.0580	646.1792	208.0688	40.2832
-0.0699	-0.5720	-0.8337	501.7090	114.8682	50.2319
-0.4116	-0.6824	-0.8176	359.4360	-16.1743	36.9263
-1.0808	-0.5878	-0.9579	236.9385	-130.8594	3.4790
-1.5177	-0.2960	-1.1356	141.9678	-202.1484	-42.6636
-1.6438	-0.0939	-1.1824	71.8384	-229.1870	-84.4727
-1.6943	0.0505	-1.0999	22.0947	-204.6509	-109.6802
-1.5967	0.1923	-1.0139	-7.6294	-148.3765	-111.6333
-1.4409	0.2791	-0.9742	-22.7051	-91.4917	-96.0693
-1.3213	0.2385	-0.9194	-27.4048	-45.2881	-71.4722
-1.2469	0.0741	-0.8446	-33.1421	-13.6719	-45.8984
-1.2012	-0.0624	-0.7756	-43.7012	6.6528	-26.3672
-1.1511	-0.1473	-0.7117	-61.9507	19.1650	-11.7798
-1.1083	-0.2316	-0.6603	-85.7544	25.0244	-2.3804
-1.0234	-0.2911	-0.6119	-113.1592	29.5410	3.9673
-0.9236	-0.3097	-0.5737	-142.8833	31.9824	6.8359
-0.8369	-0.2932	-0.5414	-173.5229	29.4800	6.5308
-0.7729	-0.2466	-0.5209	-203.6133	20.5078	2.8687
-0.7344	-0.1943	-0.5402	-230.3467	5.9204	-3.7231
-0.7523	-0.1282	-0.5852	-253.5400	-9.7046	-12.7563
-0.8550	-0.0508	-0.5541	-270.8130	-26.6724	-21.1792
-0.9628	0.0046	-0.5140	-281.2500	-43.2739	-25.5127
-1.0651	0.0406	-0.4482	-285.0952	-44.4336	-23.0713
-1.2019	-0.0277	-0.3918	-283.2031	-27.2217	-15.0146
-1.2098	-0.0143	-0.3292	-282.8369	-12.0850	-16.1743
-1.1604	-0.0140	-0.2827	-279.5410	10.0708	-10.3149
-1.0942	-0.0505	-0.2523	-276.0010	35.9497	-5.7983
-0.9834	-0.0388	-0.2178	-274.1699	53.9551	-3.7231
-0.8540	-0.0386	-0.1864	-272.8271	60.0586	-4.8828
-0.7876	-0.0690	-0.1733	-270.6299	53.4058	-10.6812
-0.7710	-0.0842	-0.1425	-267.7002	37.4146	-16.4185
-0.8108	-0.0769	-0.0901	-263.3057	20.3857	-21.7896
-0.8936	-0.0762	-0.0479	-255.9814	5.7983	-27.4048
-0.9349	-0.0663	-0.0151	-246.2769	-4.1504	-31.0059
-0.9469	-0.0648	0.0032	-235.6567	-10.0098	-31.7383
-0.9514	-0.0533	0.0192	-225.4639	-13.4888	-30.8838
-0.9708	-0.0430	0.0229	-215.6372	-15.7471	-29.1138
-0.9933	-0.0277	0.0431	-206.0547	-15.9302	-26.3672
-1.0057	-0.0135	0.0670	-195.8008	-14.7095	-23.0103
-1.0125	-0.0070	0.0892	-183.9600	-13.3667	-19.9585
-1.0199	-0.0066	0.1056	-171.2646	-11.3525	-18.1274
-1.0054	-0.0078	0.1216	-158.4473	-9.3384	-15.8081
-0.9874	-0.0171	0.1406	-146.2402	-7.9956	-13.6108
-0.9865	-0.0194	0.1543	-133.9722	-6.9580	-12.0239
-0.9866	-0.0146	0.1594	-122.4976	-6.1035	-10.4370
-0.9673	-0.0131	0.1609	-112.1826	-4.9438	-8.5449
-0.9540	-0.0027	0.1573	-102.4780	-4.3335	-6.6528
-0.9586	0.0045	0.1553	-93.4448	-3.7842	-5.3101
-0.9563	0.0071	0.1589	-85.9375	-3.6011	-4.1504
-0.9391	0.0183	0.1660	-79.8950	-3.1738	-2.8076
-0.9304	0.0310	0.1694	-74.7070	-3.4180	-0.7935
-0.9263	0.0433	0.1763	-70.2515	-4.6997	1.4648
-0.9143	0.0551	0.1879	-67.0166	-6.5308	3.4180
-0.8857	0.0605	0.2028	-64.0259	-9.0942	5.3101
-0.8573	0.0769	0.2161	-61.2183	-11.9629	6.8359
-0.8293	0.0894	0.2390	-58.3496	-14.5264	7.9956
-0.7997	0.1125	0.2644	-55.3589	-18.1274	8.7891
-0.7998	0.1588	0.2894	-51.0864	-23.8647	9.1553
-0.8636	0.2030	0.3265	-44.0674	-31.4941	10.3149
-0.8638	0.2526	0.3431	-34.6069	-37.7808	13.6719
-0.8817	0.3018	0.4146	-21.5454	-41.9312	16.4795
-0.9226	0.3097	0.5151	-0.7324	-44.9829	19.9585
-0.9603	0.3042	0.7095	31.1279	-40.5273	29.6631
-1.1320	0.3829	0.9712	82.0313	-31.4941	40.9546
-1.2397	0.4561	1.0940	159.7900	-13.9160	51.5137
-1.1156	0.5892	1.0735	261.2305	16.7236	60.1807
-0.9243	0.7278	0.9193	373.4741	50.7813	57.9224
-0.8151	0.8044	0.7043	488.0981	86.5479	39.7339
-0.7734	0.8009	0.3434	598.6938	115.7227	10.8032
-0.7954	0.8444	-0.1226	693.9087	134.2163	-29.5410
-1.1342	0.9032	-0.5109	764.7705	157.4707	-79.2236
-1.5850	1.0150	-0.7047	811.5234	202.5757	-112.4268
-1.7188	1.1202	-0.8689	841.9189	264.7095	-114.8071
-1.0128	1.0942	-0.9314	837.6465	298.5840	-82.0923
-0.1302	0.8571	-1.0511	776.8555	248.8403	-37.2925
0.0804	-0.2766	-1.6423	653.3813	119.2627	-15.6860
-0.8169	-1.5471	-1.7847	445.2515	-27.0996	3.4180
-1.8385	-1.3424	-1.3353	197.2656	-97.4121	16.2964
-2.1234	-0.2634	-0.9056	6.6528	-106.3232	-8.3008
-1.9760	0.3149	-0.8221	-89.2944	-103.7598	-30.0903
-1.5952	0.3672	-0.8206	-118.5913	-94.2993	-39.0015
-1.3683	0.2219	-0.9531	-119.5679	-85.6934	-37.4756
-1.3552	0.0962	-0.9745	-121.7651	-76.2329	-35.2173
-1.3121	0.0553	-0.9027	-131.5308	-63.0493	-30.3955
-1.1545	0.0266	-0.8350	-145.2026	-50.3540	-23.3154
-1.0656	-0.0319	-0.6661	-162.8418	-44.4946	-13.6108
-1.0303	-0.0551	-0.4426	-176.6968	-44.4946	0.4883
-0.9590	-0.0746	-0.2823	-182.9224	-48.6450	11.7798
-0.9348	-0.1321	-0.1953	-186.0962	-54.7485	16.6626
-0.9532	-0.1780	-0.1659	-190.7959	-62.3779	17.7002
-0.9861	-0.1661	-0.1510	-197.8149	-69.2749	18.3105
-1.0148	-0.1957	-0.1733	-205.9326	-68.6035	13.8550
-1.0200	-0.1743	-0.1892	-218.0786	-66.2231	6.1035
-1.0211	-0.1008	-0.1719	-231.0181	-60.6079	5.1270
-1.0187	-0.0503	-0.1809	-238.2812	-54.0161	4.0283
-1.0195	-0.0378	-0.2001	-241.2109	-47.1191	3.4180
-1.0438	-0.0270	-0.1935	-241.0889	-41.1377	4.3945
-1.0720	-0.0116	-0.1808	-238.1592	-34.4238	6.4087
-1.0854	-0.0115	-0.1359	-231.2622	-26.1230	7.9956
-1.0782	-0.0332	-0.0813	-221.3135	-18.2495	8.4229
-1.0601	-0.0671	-0.0499	-209.1675	-10.3760	6.5918
-1.0125	-0.0847	-0.0321	-197.2046	-2.7466	3.5400
-0.9612	-0.1052	-0.0378	-187.4390	2.5024	0.2441
-0.9312	-0.1150	-0.0369	-180.9692	5.4932	-3.6621
-0.9108	-0.1179	-0.0378	-176.8799	5.4932	-7.2632
-0.8939	-0.1221	-0.0342	-174.8047	2.6245	-9.9487
-0.8993	-0.1123	-0.0276	-172.9736	-1.8311	-10.9863
-0.9531	-0.0903	-0.0156	-169.4946	-6.7749	-10.5591
-0.9950	-0.0784	-0.0183	-162.9639	-9.1553	-9.6436
-0.9989	-0.0839	-0.0126	-154.7241	-8.7280	-7.3242
-1.0011	-0.0775	0.0132	-145.5688	-7.4463	-4.5166
-1.0233	-0.0707	0.0447	-135.0708	-5.5542	-1.9531
-1.0172	-0.0720	0.0636	-123.2910	-2.9907	0.1221
-0.9819	-0.0830	0.0696	-111.8774	-0.7324	1.9531
-0.9513	-0.0894	0.0743	-102.4170	-0.3662	3.8452
-0.9421	-0.0950	0.0682	-94.7876	-0.9155	4.9438
-0.9534	-0.1008	0.0575	-88.5010	-2.4414	5.2490
-0.9512	-0.1055	0.0453	-83.7402	-4.2725	5.4321
-0.9545	-0.1123	0.0342	-80.0171	-5.9814	4.9438
-0.9724	-0.1190	0.0288	-77.2095	-5.9814	3.7842
-0.9695	-0.1174	0.0234	-74.8901	-5.5542	3.2349
-0.9586	-0.1167	0.0188	-72.6318	-4.5776	2.2583
-0.9490	-0.1196	0.0167	-70.3735	-3.1738	0.9155
-0.9414	-0.1196	0.0127	-68.4204	-2.0142	-0.7324
-0.9399	-0.1223	0.0084	-66.4673	-1.2207	-2.6245
-0.9095	-0.1329	0.0065	-66.1621	-1.4038	-4.0283
-0.9030	-0.1255	0.0114	-67.5049	-3.4790	-3.8452
-0.9137	-0.1171	0.0201	-69.7021	-5.7373	-2.3804
-0.9222	-0.1144	0.0289	-72.0825	-7.8125	-0.9155
-0.8921	-0.1044	0.0409	-74.9512	-9.9487	0.7324
-0.8534	-0.0897	0.0677	-78.3691	-13.0005	2.6245
-0.8414	-0.0630	0.0837	-80.8105	-16.9067	3.1738
-0.8271	-0.0221	0.1172	-83.5571	-21.4233	2.3804
-0.8217	0.0422	0.1710	-85.6934	-25.8789	1.5259
-0.8411	0.1156	0.2102	-85.2051	-30.5176	-0.2441
-0.8406	0.1462	0.2806	-81.9702	-35.2783	-1.1597
-0.8967	0.2224	0.4366	-73.9136	-40.4053	0.0610
-1.0144	0.3042	0.6393	-53.7109	-47.1802	3.9062
-1.0565	0.3621	0.8391	-18.0054	-44.3115	13.4888
-1.0485	0.4027	0.9430	35.0952	-29.1138	26.3672
-1.1033	0.4609	1.0929	105.1636	-15.9302	39.9170
-1.1573	0.5195	1.0697	196.5942	-3.4790	55.0537
-1.0079	0.5762	0.9305	297.4243	17.7612	64.5142
-0.7496	0.5918	0.7622	398.3154	36.8042	62.3779
-0.6655	0.6031	0.5845	494.3848	47.3633	47.9126
-0.8114	0.6887	0.3088	586.1816	55.7251	26.4282
-0.9078	0.7748	-0.1139	667.1143	73.9746	-0.1831
-1.0920	0.8302	-0.4523	726.5015	107.9102	-28.8696
-1.4033	0.9132	-0.7219	762.3901	161.4380	-51.0254
-1.4381	0.9709	-0.9536	774.5361	220.6421	-61.5234
-0.9833	0.7764	-1.0359	755.6152	250.9155	-52.0630
-0.3356	0.3683	-1.0189	694.3970	228.5767	-25.8179
-0.0450	-0.2845	-1.2522	588.6841	134.2773	5.4321
-0.5574	-0.7836	-1.4012	437.5000	11.7187	34.2407
-1.4492	-0.7091	-1.2599	263.6108	-79.5898	38.5132
-1.7393	-0.3260	-1.0892	116.0889	-127.2583	15.8081
-1.6322	-0.0385	-0.9989	19.2261	-139.2822	-9.4604
-1.5214	0.0576	-0.9843	-29.5410	-134.3384	-27.4048
-1.4835	0.1676	-1.0773	-51.8799	-114.5020	-41.9312
-1.5153	0.2489	-1.1418	-63.8428	-83.0078	-49.2554
-1.4561	0.3016	-1.0535	-73.4253	-49.6826	-44.7388
-1.3835	0.2225	-0.8246	-77.2705	-17.0898	-26.6724
-1.2740	0.0731	-0.6158	-71.7163	13.7939	-4.5166
-1.1049	-0.0872	-0.4813	-66.7725	34.0576	11.2915
-0.9297	-0.2452	-0.4176	-70.7397	39.9780	19.1650
-0.8212	-0.3304	-0.3641	-85.2051	31.0059	19.0430
-0.7972	-0.3433	-0.3074	-106.0791	14.3433	13.0615
-0.8149	-0.3256	-0.2728	-127.7466	-1.8921	4.2114
-0.8390	-0.2882	-0.2550	-149.2920	-14.0991	-3.6621
-0.8486	-0.2502	-0.2614	-169.0063	-19.3481	-8.7280
-0.8500	-0.2133	-0.2793	-187.1948	-21.3013	-13.0615
-0.8379	-0.1497	-0.3624	-204.6509	-23.6816	-17.3950
-0.8835	-0.0872	-0.3738	-219.8486	-24.7192	-20.3857
-0.9640	-0.0349	-0.2776	-229.9194	-25.2686	-18.6157
-1.0453	-0.0150	-0.1840	-229.3701	-20.5688	-14.2212
-1.0809	-0.0352	-0.1454	-220.8862	-11.2915	-10.0098
-1.0835	-0.0704	-0.1449	-211.7920	-1.1597	-7.9956
-1.0454	-0.0914	-0.1638	-206.5430	10.8032	-7.5684
-0.9740	-0.0875	-0.1670	-206.7261	22.2168	-8.5449
-0.9138	-0.0844	-0.1451	-209.4727	28.3203	-11.3525
-0.8959	-0.0736	-0.1219	-212.4634	28.0151	-16.5405
-0.9208	-0.0638	-0.1051	-213.3179	23.2544	-22.5830
-0.9613	-0.0599	-0.0940	-211.5479	16.8457	-25.9399
-0.9774	-0.0476	-0.0792	-208.1299	11.5967	-25.0244
-1.0188	-0.0266	-0.0563	-201.9043	10.0708	-22.0947
-1.0594	-0.0146	-0.0088	-191.7725	9.7656	-16.9678
-1.0594	-0.0150	0.0480	-177.0020	7.9346	-10.3760
-1.0507	-0.0219	0.1013	-158.6914	5.0659	-4.4556
-1.0514	-0.0273	0.1318	-138.8550	1.8921	-0.1221
-1.0413	-0.0394	0.1439	-119.8730	-1.3428	3.3569
-1.0115	-0.0520	0.1418	-102.8442	-4.8828	6.2866
-0.9956	-0.0614	0.1289	-88.6230	-9.1553	9.0332
-0.9973	-0.0668	0.1176	-77.5757	-13.6719	11.1694
-1.0006	-0.0730	0.0988	-68.5425	-17.7002	12.8174
-1.0017	-0.0742	0.0769	-61.5845	-20.6909	14.0991
-1.0042	-0.0828	0.0565	-56.0913	-21.7285	14.7095
-1.0001	-0.0936	0.0396	-51.4526	-20.8740	14.1602
-0.9902	-0.1110	0.0259	-47.8516	-19.5313	13.3057
-0.9746	-0.1193	0.0132	-45.4102	-17.3950	11.3525
-0.9674	-0.1212	-0.0005	-43.9453	-14.5874	8.6670
-0.9591	-0.1360	-0.0127	-43.7622	-12.0239	7.1411
-0.9498	-0.1349	-0.0160	-45.4102	-10.0708	4.7607
-0.9392	-0.1323	-0.0229	-47.9126	-7.5684	2.5635
-0.9188	-0.1348	-0.0251	-52.0630	-6.1646	1.5259
-0.9120	-0.1292	-0.0265	-56.7627	-6.5918	-0.3662
-0.9316	-0.1234	-0.0197	-62.1338	-7.9346	-1.5869
-0.9539	-0.1168	-0.0128	-67.3828	-8.9722	-2.0752
-0.9329	-0.1093	-0.0001	-72.8149	-8.9722	-1.3428
-0.8966	-0.0907	0.0245	-78.2471	-9.0332	-0.0610
-0.8765	-0.0546	0.0575	-83.3130	-9.8877	0.2441
-0.8494	-0.0045	0.1050	-89.2334	-11.7187	-0.1221
-0.8134	0.0596	0.1692	-97.4731	-15.9302	-0.5493
-0.7996	0.1273	0.2518	-106.4453	-24.2920	-0.2441
-0.8375	0.1941	0.3682	-112.8540	-35.5225	1.7700
-0.9108	0.2681	0.5004	-112.3047	-44.3115	7.5684
-1.0496	0.3638	0.6617	-97.1069	-52.1240	18.4326
-1.0111	0.3593	0.7333	-63.0493	-50.9644	34.6069
-1.0184	0.4076	0.8943	-11.7798	-42.1143	53.8940
-1.1689	0.4635	1.1039	63.7817	-38.8794	76.4771
-1.2522	0.5688	1.2944	170.2271	-20.7520	94.6655
-1.2476	0.7012	1.3289	306.2134	18.3716	106.9336
-0.9219	0.9208	1.0690	456.2988	66.0400	112.1216
-0.6124	0.9766	0.5641	600.0977	105.5298	94.9097
-0.6931	0.9906	0.1354	717.8955	131.7139	54.8096
-1.0718	1.1084	-0.3403	809.6924	160.7666	7.7515
-1.4480	1.2325	-0.7007	870.3613	213.0127	-24.6582
-1.4630	1.3066	-1.0177	906.6772	284.1797	-28.0151
-0.8590	1.1698	-1.6007	902.1606	333.4351	-2.1362
0.2299	0.1716	-1.6918	812.1948	315.0024	31.1279
0.5308	-0.8291	-1.3695	640.0146	207.5806	46.8140
-0.3311	-1.1404	-1.3214	431.1523	27.5879	38.5742
-1.4150	-0.9832	-1.3932	234.0088	-115.3564	3.6621
-1.9650	-0.4952	-1.2925	75.1343	-184.2041	-57.7393
-1.9686	-0.0024	-1.2399	-26.2451	-188.6597	-111.6333
-1.7056	0.2411	-1.2186	-76.5381	-151.8555	-130.9204
-1.6044	0.3785	-1.2211	-96.5576	-106.8726	-127.1362
-1.6812	0.4977	-1.1022	-100.4028	-66.2842	-105.4077
-1.6184	0.4891	-0.9973	-93.0176	-31.0059	-67.8101
-1.5299	0.2357	-0.8248	-83.1909	9.0332	-32.4707
-1.3210	-0.0060	-0.6692	-78.0029	46.9360	-7.9956
-1.0752	-0.1768	-0.5328	-85.3271	65.1245	6.8359
-0.9211	-0.2983	-0.4635	-103.0273	65.3076	14.4043
-0.8239	-0.3555	-0.4191	-128.6621	49.6216	16.7236
-0.7838	-0.3507	-0.3705	-159.1187	26.6724	14.4043
-0.7887	-0.2831	-0.3291	-189.2700	3.2959	8.9722
-0.8170	-0.1783	-0.3071	-213.8062	-16.6016	2.0142
-0.8314	-0.0944	-0.2834	-228.0884	-31.7383	-4.8828
-0.9185	-0.0306	-0.2390	-231.6895	-42.6025	-10.7422
-1.0519	0.0371	-0.1624	-225.5859	-45.4102	-12.3901
-1.1949	0.0078	-0.0886	-209.2285	-33.6914	-7.9956
-1.1903	-0.0115	-0.0375	-189.6973	-18.4326	-6.5308
-1.1510	-0.0437	-0.0076	-170.7764	1.0986	-2.1362
-1.1132	-0.0883	0.0028	-154.7852	23.0713	5.4321
-1.0391	-0.1125	-0.0002	-144.2871	37.9639	11.4746
-0.9395	-0.1418	-0.0032	-140.0146	42.4805	14.9536
-0.8500	-0.1621	-0.0122	-141.2964	33.6304	16.5405
-0.8202	-0.1688	-0.0337	-145.0195	17.5781	16.3574
-0.8464	-0.1754	-0.0461	-150.1465	-2.7466	14.9536
-0.9050	-0.1650	-0.0444	-154.9072	-22.2778	12.6953
-0.9534	-0.1456	-0.0582	-157.1045	-35.8887	10.8032
-0.9719	-0.1249	-0.0957	-155.7007	-42.1753	10.4370
-1.0178	-0.1027	-0.0760	-152.3437	-43.0298	10.5591
-1.0696	-0.0972	-0.0071	-144.6533	-38.3301	11.4136
-1.1013	-0.1128	0.0416	-131.4697	-28.2593	12.3901
-1.0999	-0.1124	0.0670	-116.0278	-15.1367	12.7563
-1.0693	-0.1426	0.0629	-100.2197	-1.7090	11.7187
-0.9944	-0.1718	0.0536	-88.5620	8.9111	10.1318
-0.9353	-0.1908	0.0424	-82.2754	16.3574	7.6904
-0.9263	-0.2045	0.0255	-80.0781	19.1040	4.2725
-0.9271	-0.2018	0.0057	-80.5664	18.1274	1.0986
-0.8932	-0.2080	-0.0100	-83.6182	14.3433	-0.5493
-0.8889	-0.2155	-0.0205	-88.8062	7.1411	-0.0610
-0.9161	-0.2076	-0.0193	-95.0317	-2.0142	1.4648
-0.9342	-0.2061	-0.0295	-100.2808	-9.8877	3.4790
-0.9434	-0.1890	-0.0333	-104.3701	-16.5405	5.0659
-0.9664	-0.1781	-0.0245	-106.0791	-21.1792	5.0659
-0.9908	-0.1790	-0.0160	-105.0415	-23.3154	3.8452
-1.0105	-0.1703	-0.0084	-102.4170	-22.3999	2.0752
-1.0269	-0.1655	0.0046	-98.2666	-18.1885	0.7935
-1.0197	-0.1685	0.0106	-93.0176	-11.7798	0.0610
-1.0048	-0.1718	0.0171	-87.5244	-4.9438	-0.6714
-0.9760	-0.1741	0.0226	-83.0688	1.0986	-1.4038
-0.9525	-0.1780	0.0210	-80.3223	4.5166	-2.1973
-0.9491	-0.1732	0.0210	-78.8574	5.6152	-3.1128
-0.9441	-0.1710	0.0210	-78.0640	5.6763	-4.2114
-0.9343	-0.1685	0.0267	-78.9795	4.5166	-5.4932
-0.9344	-0.1614	0.0354	-80.8105	3.3569	-6.2256
-0.9310	-0.1553	0.0410	-82.7637	1.5869	-6.2866
-0.9109	-0.1451	0.0531	-85.1440	0.3052	-5.9204
-0.8896	-0.1338	0.0742	-87.3413	-0.3052	-5.3101
-0.8615	-0.1166	0.1062	-90.2710	-2.6855	-5.3711
-0.8174	-0.0780	0.1470	-94.7266	-8.6060	-5.3101
-0.8020	-0.0392	0.1909	-100.4028	-16.2354	-5.0659
-0.7858	-0.0093	0.2300	-105.9570	-24.3530	-4.8218
-0.7555	0.0433	0.2928	-111.7554	-33.8745	-3.7231
-0.7687	0.1099	0.3778	-116.4551	-45.5322	-2.9297
-0.9027	0.1882	0.5093	-115.1733	-56.5186	-0.7324
-1.0288	0.1812	0.6606	-101.0132	-62.1338	8.0566
-1.0928	0.2449	0.8527	-66.8335	-57.9834	24.8413
-1.1600	0.3696	1.0632	-7.8125	-54.0771	48.0347
-1.1898	0.3970	1.1837	85.0220	-42.2363	78.2471
-1.3821	0.4941	1.3610	208.3130	-17.4561	108.8867
-1.1357	0.7189	1.3293	356.1401	19.4702	129.3335
-0.5139	0.8822	0.9791	517.2729	49.9878	124.3896
-0.3269	0.8673	0.3281	663.0859	51.3916	85.8154
-0.5027	0.9669	-0.1377	762.4512	37.1094	32.1655
-0.8062	0.9556	-0.6532	808.9600	32.0435	-4.0894
-1.1658	0.8363	-1.0980	812.6831	65.7349	-20.5078
-1.2637	0.2965	-1.5183	762.3291	125.6104	-24.5972
-1.4022	-0.4020	-1.6808	645.5688	195.8618	-14.0991
-1.0804	-0.5580	-1.5521	475.5249	246.3379	24.2310
-0.7244	-0.4686	-1.3397	302.9175	241.8213	50.7813
-0.9940	-0.4727	-1.1979	156.5552	172.9736	38.8184
-1.2006	-0.2250	-1.1683	48.9502	80.9937	6.5308
-1.1573	-0.1561	-1.1500	-21.4233	-2.5635	-26.0620
-1.2124	-0.1160	-1.1134	-69.9463	-60.3638	-49.1333
-1.3652	0.0760	-0.9435	-105.4688	-84.7778	-58.4106
-1.4175	0.1969	-0.7993	-113.9526	-81.0547	-54.2603
-1.3905	0.1337	-0.6991	-106.6284	-67.9321	-41.2598
-1.3447	0.0032	-0.5582	-99.4263	-49.6826	-26.8555
-1.2086	-0.1094	-0.4143	-97.4121	-28.0762	-13.4277
-1.0525	-0.2120	-0.3179	-100.5859	-10.2539	-2.6855
-0.9215	-0.2721	-0.2485	-109.2529	-1.7700	5.4932
-0.8484	-0.2965	-0.2101	-122.5586	-3.5400	10.0708
-0.8475	-0.2976	-0.1920	-137.8784	-12.6343	11.4746
-0.8947	-0.2733	-0.1852	-154.4189	-23.9868	11.2915
-0.9471	-0.2377	-0.1606	-169.3726	-31.1890	10.6201
-0.9591	-0.1827	-0.1569	-179.5044	-31.9824	8.6670
-0.9519	-0.1382	-0.1913	-183.7158	-28.4424	7.1411
-0.9718	-0.1074	-0.1705	-182.8613	-23.6206	5.1270
-1.0239	-0.0957	-0.0992	-178.4058	-18.8599	2.6245
-1.0789	-0.1151	-0.0388	-169.2505	-11.3525	1.3428
-1.0897	-0.1384	-0.0211	-159.6680	-1.0376	0.9766
-1.0231	-0.1558	-0.0328	-153.6865	11.1084	2.0752
-0.9508	-0.1721	-0.0236	-153.6865	18.8599	4.2114
-0.8912	-0.1763	-0.0267	-157.2266	19.7144	4.7607
-0.8433	-0.1797	-0.0383	-162.9028	12.2681	2.5635
-0.8514	-0.1847	-0.0548	-169.5557	0.6714	-1.0986
-0.9034	-0.1775	-0.0637	-175.7812	-11.1694	-5.1880
-1.0038	-0.1549	-0.0479	-179.6875	-20.9351	-8.2397
-1.0658	-0.1473	-0.0560	-179.0161	-24.9023	-7.6294
-1.0740	-0.1252	-0.0444	-175.3540	-20.9961	-4.2114
-1.0442	-0.1029	-0.0164	-168.5791	-11.5967	0.3662
-1.0139	-0.1028	0.0128	-158.6304	-3.2959	4.5776
-0.9899	-0.1178	0.0385	-146.6675	-0.3052	7.0190
-0.9635	-0.1298	0.0676	-134.2773	-1.0986	7.6294
-0.9585	-0.1512	0.0758	-122.2534	-1.7090	6.8359
-0.9519	-0.1641	0.0725	-111.9995	-3.6011	4.8218
-0.9366	-0.1670	0.0703	-104.4312	-6.3477	2.3804
-0.9357	-0.1688	0.0659	-98.9990	-9.4604	-0.1221
-0.9381	-0.1700	0.0562	-95.0928	-12.6953	-2.0142
-0.9417	-0.1632	0.0406	-92.4072	-15.5640	-3.5400
-0.9758	-0.1591	0.0298	-90.6372	-16.9067	-4.3335
-1.0240	-0.1493	0.0233	-88.5010	-15.9302	-4.7607
-1.0112	-0.1393	0.0138	-85.9985	-11.2915	-4.0894
-0.9734	-0.1475	0.0131	-84.0454	-7.6294	-3.0518
-0.9614	-0.1488	0.0215	-83.1299	-6.6528	-2.0752
-0.9644	-0.1478	0.0259	-82.7637	-8.4229	-1.1597
-0.9517	-0.1501	0.0228	-82.9468	-12.4512	-0.4272
-0.9337	-0.1508	0.0193	-84.8999	-17.2119	0.3662
-0.9336	-0.1482	0.0204	-87.7075	-21.8506	1.8921
-0.9352	-0.1472	0.0236	-90.8813	-26.7944	2.3804
-0.9290	-0.1418	0.0231	-94.2383	-30.8838	1.8311
-0.9315	-0.1338	0.0203	-97.1069	-33.1421	1.2207
-0.9186	-0.1315	0.0162	-100.0977	-33.9966	0.2441
-0.8922	-0.1195	0.0178	-104.1260	-33.7524	-1.7090
-0.8741	-0.1082	0.0247	-109.1309	-32.7148	-3.6621
-0.8540	-0.1018	0.0322	-114.5630	-32.3486	-6.1646
-0.8195	-0.0839	0.0475	-121.0327	-33.4473	-9.3384
-0.7897	-0.0549	0.0746	-127.9907	-36.1328	-12.1460
-0.8132	-0.0198	0.1390	-134.2773	-40.3442	-15.3198
-0.9093	0.0328	0.2294	-136.6577	-45.9595	-16.7236
-1.0691	0.1167	0.4000	-131.7749	-48.4009	-13.7939
-1.2203	0.1689	0.6045	-112.4878	-45.7153	-4.6387
-1.2570	0.2819	0.8308	-74.1577	-36.9263	14.2822
-1.2101	0.4252	0.9482	-7.8735	-21.9727	42.2974
-1.3475	0.3973	0.9502	87.3413	-3.2349	71.7163
-1.4164	0.3348	0.9310	195.9229	22.2168	96.0083
-1.3020	0.4132	1.0287	307.4341	60.1807	109.3140
-1.0417	0.6185	0.9838	428.2837	100.5249	106.3232
-0.7545	0.7396	0.5399	555.6641	131.9580	76.9653
-0.7208	0.7114	0.2095	660.7666	145.8740	31.6772
-0.9451	0.7622	-0.1987	733.8867	153.6255	-12.2070
-1.2695	0.7637	-0.6149	774.9023	178.1616	-48.0347
-1.3795	0.7330	-0.8416	778.8086	221.8018	-58.7158
-1.0887	0.6312	-0.9941	757.7515	258.7891	-37.3535
-0.6387	0.3396	-1.1187	705.6885	262.5122	1.2817
-0.3412	-0.1373	-1.2257	612.9761	216.6748	37.9028
-0.5040	-0.6487	-1.2305	478.7598	132.7515	48.4619
-0.8112	-0.9784	-1.1401	319.2749	49.9878	36.3159
-1.0951	-0.9771	-1.0369	155.8228	-16.6626	12.4512
-1.3397	-0.6106	-1.0438	20.3247	-53.0396	-25.6958
-1.4515	-0.2181	-1.0311	-77.5146	-67.6880	-65.0635
-1.4417	0.0155	-0.9806	-135.9253	-75.1343	-88.7451
-1.3767	0.0946	-0.8954	-164.5508	-71.8384	-97.7783
-1.2928	0.0824	-0.8118	-178.2227	-63.4155	-93.0786
-1.2573	0.0560	-0.7393	-183.5327	-53.1006	-78.0640
-1.1968	0.0099	-0.6506	-184.7534	-45.1050	-54.3213
-1.0663	-0.0198	-0.5483	-188.1714	-40.2222	-26.9165
-0.9587	-0.0494	-0.4423	-192.7490	-34.9121	-4.3945
-0.9365	-0.0834	-0.3040	-195.0073	-32.5317	12.1460
-0.9479	-0.1309	-0.1895	-193.1763	-36.0107	24.6582
-0.9934	-0.1534	-0.1033	-188.9648	-40.4663	28.0151
-1.0599	-0.1437	-0.0248	-183.4106	-38.5132	23.3154
-1.0834	-0.1523	0.0304	-174.6216	-24.7803	15.5640
-1.0621	-0.1641	0.0291	-163.8184	-3.7231	4.2725
-1.0212	-0.1458	0.0488	-156.7993	9.3384	-5.4321
-0.9974	-0.1274	0.0621	-149.5361	15.2588	-7.6904
-1.0000	-0.1107	0.0717	-141.7847	21.5454	-10.0098
-1.0015	-0.0936	0.0669	-133.9722	27.9541	-9.0942
-1.0172	-0.0880	0.0729	-126.7700	33.5083	-7.0801
-1.0313	-0.0911	0.1116	-119.5068	37.6587	-6.2866
-1.0388	-0.1102	0.1517	-109.6802	41.7480	-5.1270
-0.9979	-0.1195	0.1810	-98.5107	44.8608	-3.6621
-0.9373	-0.1388	0.2013	-87.6465	44.0063	-2.2583
-0.9028	-0.1642	0.2139	-78.0640	37.7808	-1.4648
-0.8890	-0.1805	0.2196	-70.3735	28.2593	-1.0986
-0.8903	-0.1921	0.2164	-65.0635	17.9443	-0.7935
-0.9154	-0.1975	0.2065	-60.8521	8.4839	-0.9155
-0.9318	-0.1903	0.1888	-58.3496	1.5869	-1.1597
-0.9364	-0.1803	0.1794	-57.3120	-1.9531	-0.9766
-0.9542	-0.1763	0.1672	-56.2744	-4.0894	-0.5493
-0.9792	-0.1639	0.1584	-54.7485	-4.7607	0.3662
-0.9899	-0.1587	0.1398	-52.9175	-4.2725	2.1362
-0.9829	-0.1666	0.1139	-51.2085	-1.4648	4.0283
-0.9717	-0.1680	0.0958	-50.1709	1.9531	6.4087
-0.9753	-0.1775	0.0867	-49.1943	5.6152	9.0942
-0.9697	-0.1790	0.0844	-48.7061	7.8735	10.0098
-0.9666	-0.1882	0.0784	-47.9126	8.1787	9.5825
-0.9390	-0.1949	0.0740	-47.9126	6.5918	9.6436
-0.9274	-0.2153	0.0698	-48.8281	0.7324	10.6812
-0.9417	-0.2114	0.0583	-51.2085	-6.0425	11.9019
-0.9456	-0.2096	0.0520	-54.5654	-11.7798	13.1226
-0.9434	-0.2140	0.0425	-59.1431	-16.4795	13.9771
-0.9402	-0.2112	0.0326	-64.7583	-19.8364	14.5264
-0.9343	-0.2112	0.0238	-70.8008	-21.9727	14.9536
-0.9136	-0.2161	0.0140	-78.3081	-23.3154	14.5874
-0.8859	-0.2179	0.0018	-86.9751	-24.9023	14.0991
-0.8772	-0.2097	-0.0060	-97.1680	-26.7944	13.0005
-0.8832	-0.1910	0.0000	-108.9478	-28.7476	11.0474
-0.8956	-0.1750	0.0131	-120.9106	-31.1279	7.6904
-0.9010	-0.1625	0.0280	-131.2866	-33.1421	4.6387
-0.9176	-0.1567	0.0372	-140.6250	-34.2407	3.4790
-0.9307	-0.1414	0.0526	-148.6816	-36.0107	3.7231
-0.8922	-0.1210	0.0686	-156.0059	-38.6963	4.6997
-0.8420	-0.0935	0.1003	-164.2456	-42.4805	6.4087
-0.8170	-0.0601	0.1434	-172.3633	-46.5698	8.1787
-0.7965	-0.0364	0.1870	-178.1616	-52.7344	10.6201
-0.7667	-0.0111	0.2306	-181.5796	-61.8286	12.3901
-0.8267	0.0634	0.3273	-179.9927	-72.0825	11.4136
-0.9481	0.1002	0.3961	-167.3584	-81.6040	9.5825
-1.0508	0.1365	0.4979	-144.5923	-80.3223	8.9111
-1.1926	0.2467	0.5825	-108.6426	-70.2515	12.6343
-1.4475	0.2894	0.8628	-51.6968	-51.0254	21.4233
-1.7939	0.2130	1.3035	43.7622	-19.1040	37.4756
-1.8101	0.4053	1.6200	191.2231	33.6304	65.6738
-1.4713	0.7101	1.3840	377.9297	111.2061	87.7075
-1.0219	0.9117	0.7463	560.1196	182.0679	81.6650
-0.9290	0.7823	0.1371	702.0874	214.3555	47.1802
-1.1151	0.7950	-0.2865	786.8042	223.6328	10.5591
-1.0725	0.9054	-0.6182	820.8618	243.7744	-4.7607
-0.7512	0.5861	-0.8464	798.1567	245.8496	6.5918
-0.2700	0.0991	-0.8842	725.4639	217.2241	31.0669
-0.0745	-0.5189	-0.8650	609.8633	157.7759	59.6924
-0.2124	-0.9990	-0.8442	454.5898	69.1528	73.1812
-0.6757	-1.0974	-0.8817	285.0342	-20.4468	61.5234
-1.2258	-0.8805	-0.8512	134.4604	-87.7686	13.6719
-1.5029	-0.4902	-0.8918	28.4424	-121.2769	-49.0723
-1.4193	-0.2194	-0.8278	-33.5693	-130.3711	-92.1021
-1.4122	-0.0327	-0.7819	-63.8428	-116.5771	-104.0649
-1.4271	0.1112	-0.6958	-70.1904	-86.8530	-89.7827
-1.3434	0.1633	-0.6326	-58.8989	-54.6875	-58.3496
-1.2791	0.0713	-0.5870	-40.9546	-24.9023	-23.6206
-1.2417	-0.0802	-0.5172	-27.6489	1.2817	0.1221
-1.0876	-0.2462	-0.4006	-23.8647	24.3530	9.3384
-0.9069	-0.3794	-0.2896	-29.7852	40.4663	7.0801
-0.7949	-0.4414	-0.1964	-43.6401	42.1143	1.7090
-0.7622	-0.4406	-0.1189	-60.6689	32.7148	-4.0283
-0.7703	-0.4086	-0.0657	-75.6226	20.5078	-9.6436
-0.7968	-0.3707	-0.0323	-86.9751	6.8359	-13.6108
-0.8108	-0.3403	-0.0195	-95.3979	-5.6763	-14.5874
-0.8035	-0.3146	-0.0354	-101.1963	-18.7988	-11.9629
-0.8287	-0.2911	-0.0479	-106.0791	-32.8979	-6.8359
-0.8667	-0.2632	-0.0696	-109.8633	-45.7153	-1.3428
-0.9110	-0.2484	-0.0745	-110.1074	-54.9316	2.9907
-0.9579	-0.2476	-0.0637	-107.7881	-61.9507	7.2632
-0.9976	-0.2697	-0.0530	-104.1870	-65.9180	10.7422
-1.0461	-0.2902	-0.0580	-101.1963	-64.2700	12.7563
-1.0994	-0.2864	-0.0547	-100.8301	-56.2744	13.4277
-1.0990	-0.2783	-0.0571	-100.5859	-42.1143	12.1460
-1.0626	-0.3007	-0.0656	-100.4639	-25.7568	8.9722
-1.0197	-0.3115	-0.0920	-102.4780	-11.2915	5.1270
-0.9929	-0.3181	-0.1094	-107.1167	-5.0049	1.2207
-0.9723	-0.2976	-0.1226	-112.7930	-4.0894	-2.1973
-0.9685	-0.2980	-0.1407	-117.2485	-4.3335	-4.6997
-0.9680	-0.2937	-0.1429	-119.5068	-6.8359	-4.3945
-0.9772	-0.2812	-0.1061	-120.7275	-9.0332	-1.8921
-0.9901	-0.2815	-0.0624	-118.2251	-9.9487	1.4038
-0.9810	-0.2791	-0.0419	-112.8540	-10.2539	3.5400
-0.9656	-0.2806	-0.0271	-106.7505	-9.8877	3.4790
-0.9371	-0.2911	-0.0050	-101.4404	-9.2163	1.8921
-0.9065	-0.3011	0.0104	-97.1680	-10.6201	0.1221
-0.9055	-0.3070	0.0134	-94.4214	-14.2212	-1.8921
-0.9427	-0.3044	0.0048	-93.9941	-18.3105	-3.7842
-0.9694	-0.3026	-0.0050	-95.6421	-20.3247	-5.0659
-0.9618	-0.2968	-0.0071	-99.2432	-20.0195	-5.3711
-0.9716	-0.2921	-0.0178	-102.9053	-19.5923	-4.5776
-0.9646	-0.2839	-0.0297	-106.0791	-19.5923	-3.2349
-0.9680	-0.2811	-0.0411	-110.1685	-20.9351	-1.6479
-0.9960	-0.2745	-0.0485	-114.1968	-21.3013	-1.0986
-0.9910	-0.2679	-0.0499	-118.4082	-19.5923	-0.5493
-0.9653	-0.2699	-0.0433	-122.3145	-17.8833	0.0610
-0.9503	-0.2710	-0.0438	-126.0986	-16.4185	-0.7324
-0.9164	-0.2649	-0.0317	-129.6997	-16.0522	-2.0752
-0.8914	-0.2620	-0.0134	-133.9111	-17.7002	-3.9062
-0.8971	-0.2559	0.0017	-137.8784	-20.1416	-6.0425
-0.9048	-0.2426	0.0134	-140.8081	-22.6440	-9.6436
-0.8916	-0.2333	0.0121	-143.9209	-24.3530	-13.4888
-0.8708	-0.2208	0.0197	-148.0713	-25.5737	-16.4795
-0.8705	-0.2042	0.0255	-152.5269	-26.4893	-19.5313
-0.8644	-0.1893	0.0336	-156.4941	-27.7710	-22.4609
-0.8647	-0.1752	0.0468	-160.9497	-28.8086	-24.6582
-0.8768	-0.1553	0.0671	-165.4663	-29.4189	-25.6348
-0.9174	-0.1234	0.1029	-169.4336	-28.8086	-24.9023
-0.9275	-0.1003	0.1633	-170.0439	-24.9023	-21.6675
-0.9590	-0.0344	0.2776	-163.7573	-22.3389	-16.8457
-1.0123	-0.0062	0.4382	-145.6909	-25.5737	-9.7046
-0.9070	0.0884	0.5950	-115.3564	-27.5269	0.6104
-1.0085	0.1267	0.7643	-64.8804	-33.0811	13.3667
-1.3999	0.0903	1.0242	10.1929	-35.2783	28.5645
-1.7244	0.1847	1.3776	116.0889	-13.4888	47.7905
-1.6396	0.4604	1.5022	260.7422	50.2319	69.2139
-1.1206	0.7201	1.1492	425.4761	126.6479	79.1016
-0.8253	0.6671	0.5417	575.3174	177.8564	58.0444
-0.9073	0.6453	0.1293	686.2183	211.0596	13.9771
-1.1378	0.7992	-0.3164	765.3198	243.3472	-30.7617
-1.3000	0.7811	-0.7838	806.2134	281.6772	-55.8472
-1.1868	0.6556	-0.9408	794.4946	325.4395	-47.9736
-0.8431	0.2151	-1.0791	738.6475	354.6753	-11.1084
-0.4749	-0.5319	-0.9333	628.2959	350.4028	29.8462
-0.1495	-0.9648	-0.6240	482.9712	305.3589	54.5654
-0.0170	-1.1517	-0.4568	326.9653	212.5854	55.2368
-0.2944	-1.1836	-0.4316	178.9551	92.2852	32.6538
-0.8378	-0.8722	-0.5220	56.1523	-16.9678	-17.5781
-1.2500	-0.3640	-0.5260	-25.3906	-99.4263	-72.3877
-1.2394	-0.2048	-0.5393	-66.6504	-158.4473	-108.3374
-1.2450	-0.0437	-0.5559	-85.1440	-179.1992	-132.0190
-1.4189	0.0737	-0.5099	-92.3462	-177.6123	-131.3477
-1.5709	0.1198	-0.4374	-90.8203	-164.9170	-106.3843
-1.6458	0.0500	-0.3580	-81.9092	-133.1787	-71.2891
-1.5862	-0.0792	-0.2689	-71.2280	-87.5244	-38.2690
-1.4169	-0.1794	-0.1859	-65.0635	-40.5884	-13.4888
-1.2103	-0.2869	-0.1267	-64.8804	-3.7842	-0.1221
-1.0710	-0.3655	-0.1106	-71.1060	17.7002	4.9438
-0.9843	-0.3640	-0.0695	-83.1299	23.6206	6.3477
-0.8888	-0.3434	-0.0259	-95.5200	20.9351	5.4321
-0.8291	-0.3280	0.0015	-104.9194	11.8408	2.6855
-0.8265	-0.3008	0.0245	-111.2061	-2.6855	0.6104
-0.8538	-0.2642	0.0398	-114.1968	-20.8130	0.8545
-0.8700	-0.2369	0.0533	-113.1592	-36.6211	2.7466
-0.9106	-0.2319	0.0703	-107.6050	-50.4761	4.7607
-0.9838	-0.2383	0.0814	-99.9756	-63.6597	7.0801
-1.0437	-0.2523	0.0740	-91.6138	-70.2515	10.0708
-1.0841	-0.2791	0.0544	-86.1816	-68.9087	14.5874
-1.1034	-0.2986	0.0258	-85.4492	-60.4248	19.4702
-1.0975	-0.3219	-0.0027	-90.6372	-47.5464	24.0479
-1.0588	-0.3298	-0.0446	-100.7690	-34.3628	27.2217
-1.0288	-0.3297	-0.0840	-114.1357	-22.4609	28.1372
-1.0067	-0.2970	-0.0988	-127.7466	-13.7329	27.4048
-0.9760	-0.2670	-0.0966	-138.0615	-9.8877	25.7568
-0.9344	-0.2312	-0.0759	-144.4092	-10.1318	22.2168
-0.9598	-0.2098	-0.0404	-145.0195	-12.6953	16.9067
-1.0209	-0.1971	0.0239	-138.6719	-16.4185	12.9395
-1.0568	-0.1904	0.0884	-126.4038	-16.5405	10.3760
-1.0385	-0.2136	0.1279	-109.0088	-10.4370	8.3618
-0.9969	-0.2435	0.1383	-91.4917	-3.7231	7.8125
-0.9662	-0.2659	0.1368	-77.7588	0.0610	8.2397
-0.9401	-0.2809	0.1259	-68.8477	1.8921	8.6670
-0.8779	-0.2941	0.1067	-65.3076	0.3052	9.2163
-0.8560	-0.3148	0.0806	-66.3452	-7.2021	9.2163
-0.8796	-0.3079	0.0605	-70.9839	-16.4185	7.8735
-0.9447	-0.3048	0.0483	-76.6602	-25.8179	6.8359
-1.0156	-0.2910	0.0090	-82.1533	-32.5317	7.1411
-1.0280	-0.2806	-0.0195	-86.8530	-31.8604	8.6060
-0.9965	-0.2762	-0.0172	-92.4072	-27.3438	11.0474
-0.9852	-0.2781	-0.0018	-97.2900	-22.8271	13.7329
-0.9679	-0.2838	0.0142	-100.5859	-20.0195	15.4419
-0.9514	-0.2970	0.0200	-102.4780	-19.7754	16.2964
-0.9421	-0.3022	0.0273	-104.1260	-20.8740	15.8691
-0.9222	-0.3063	0.0289	-105.9570	-21.9727	14.4653
-0.9095	-0.3174	0.0231	-107.9102	-23.2544	12.9395
-0.9100	-0.3074	0.0294	-110.8398	-23.6206	11.7187
-0.9213	-0.3107	0.0312	-112.8540	-23.1323	10.4980
-0.9148	-0.3055	0.0187	-113.7085	-21.1792	8.3618
-0.9084	-0.3104	0.0050	-113.5254	-18.3105	7.3242
-0.9045	-0.3112	0.0023	-113.8306	-14.7095	6.2866
-0.8944	-0.3170	0.0127	-113.9526	-11.1694	3.9062
-0.8580	-0.3268	0.0325	-113.5864	-8.6670	0.9766
-0.8115	-0.3253	0.0437	-113.2813	-9.8877	-1.2817
-0.7943	-0.3158	0.0551	-113.0981	-14.5874	-3.2959
-0.8008	-0.3025	0.0624	-113.5864	-21.5454	-5.6152
-0.8170	-0.2877	0.0701	-115.6616	-27.8931	-7.2632
-0.8130	-0.2632	0.0925	-119.9341	-32.3486	-6.7749
-0.8099	-0.2249	0.1289	-126.1597	-35.8276	-5.8594
-0.7837	-0.1935	0.1671	-132.9346	-38.2080	-4.2725
-0.7189	-0.1478	0.2202	-140.4419	-42.7246	-2.3193
-0.6346	-0.0817	0.2489	-146.6675	-51.6357	-2.8687
-0.6338	-0.0349	0.2753	-148.8647	-67.0166	-7.9346
-0.7319	-0.0018	0.2828	-143.0054	-86.0596	-14.1602
-0.9301	0.0188	0.4485	-128.1128	-101.5625	-16.2964
-1.3583	0.0665	0.8466	-90.8813	-104.3091	-10.6201
-1.5939	0.1648	1.2623	-13.2446	-82.1533	2.9297
-1.6151	0.2563	1.4200	106.3843	-31.9214	20.3247
-1.4703	0.3937	1.2887	252.9907	40.0391	32.9590
-1.2114	0.5343	1.0553	401.4282	117.1265	36.8652
-0.9484	0.6049	0.7056	537.9639	172.2412	28.8086
-0.8179	0.6787	0.3282	652.1606	204.1016	3.8452
-0.9114	0.7988	-0.2030	738.4033	221.0693	-33.7524
-1.0116	0.6976	-0.6726	778.6255	230.1025	-67.1387
-0.7616	0.4750	-0.7924	756.2866	228.5156	-68.8477
-0.5452	0.0558	-0.9188	684.7534	200.3174	-43.7622
-0.7621	-0.7098	-1.0828	565.8569	163.2690	-17.8833
-0.9111	-1.0834	-0.8928	397.4609	127.8687	-1.0376
-0.8438	-0.9230	-0.7128	214.9048	76.5381	8.9722
-1.1185	-0.5206	-0.7120	66.0400	20.2026	-3.5400
-1.4413	-0.1611	-0.7937	-24.4751	-26.1230	-30.3955
-1.3864	-0.1194	-0.8237	-65.4907	-71.2280	-49.6216
-1.3162	-0.1309	-0.8282	-82.2754	-97.7783	-60.3027
-1.4019	-0.1133	-0.6913	-92.4072	-103.6987	-61.3403
-1.4655	-0.1096	-0.5284	-96.9238	-99.8535	-51.3306
-1.4663	-0.1415	-0.3999	-95.0317	-81.8481	-36.9263
-1.3522	-0.1921	-0.3201	-90.7593	-54.2603	-20.2637
-1.1382	-0.2550	-0.2601	-91.6748	-32.4707	-4.3945
-1.0004	-0.3257	-0.2095	-100.9521	-22.2168	6.1646
-0.9414	-0.3608	-0.1802	-115.9668	-22.8882	12.0239
-0.8962	-0.3665	-0.1740	-132.7515	-29.4189	13.0005
-0.8693	-0.3535	-0.1521	-150.2686	-37.1704	10.4370
-0.8165	-0.2960	-0.1791	-166.1377	-43.4570	6.3477
-0.8229	-0.2712	-0.2177	-176.8799	-47.6074	1.0986
-0.8856	-0.2350	-0.1453	-184.9976	-51.7578	-1.5869
-0.9731	-0.1711	-0.0533	-185.1196	-51.6968	0.9766
-1.0320	-0.1678	0.0238	-173.9502	-44.9219	3.7231
-1.0428	-0.1917	0.0645	-157.0435	-32.5928	6.2866
-1.0067	-0.2186	0.0719	-139.6484	-16.7847	8.9722
-0.9529	-0.2450	0.0854	-126.9531	-3.0518	11.7798
-0.9075	-0.2734	0.0822	-119.0186	5.9814	13.0615
-0.8650	-0.2925	0.0542	-115.3564	8.8501	10.8643
-0.8335	-0.2937	0.0132	-117.1265	5.9814	7.5684
-0.8098	-0.2902	-0.0250	-122.8638	-0.9155	6.6528
-0.8009	-0.2882	-0.0774	-130.7983	-9.5825	5.0049
-0.8436	-0.2778	-0.0868	-141.4795	-20.4468	1.8921
-0.9271	-0.2474	-0.0718	-151.3672	-30.7007	-0.7324
-1.0107	-0.2216	-0.0303	-156.1890	-36.4990	-1.8311
-1.0663	-0.1979	0.0282	-155.3345	-36.1328	-2.2583
-1.0948	-0.1875	0.0696	-148.4985	-29.3579	-3.0518
-1.0875	-0.1932	0.0828	-138.1836	-17.7612	-2.4414
-1.0494	-0.2009	0.0857	-127.9297	-7.0801	-1.8921
-1.0044	-0.2134	0.0840	-119.5068	0.5493	-1.5259
-0.9617	-0.2202	0.0826	-113.2813	4.7607	-1.5259
-0.9338	-0.2340	0.0704	-109.0698	5.2490	-1.5869
-0.9243	-0.2401	0.0531	-107.7881	1.5259	-2.0752
-0.9342	-0.2429	0.0435	-108.8257	-3.4180	-2.6855
-0.9402	-0.2371	0.0410	-110.4126	-7.9956	-3.6621
-0.9355	-0.2321	0.0382	-111.3281	-11.4746	-5.4321
-0.9366	-0.2238	0.0444	-111.4502	-14.4653	-7.8125
-0.9487	-0.2141	0.0560	-111.0229	-17.2729	-9.9487
-0.9736	-0.2052	0.0690	-109.4360	-18.3105	-11.7187
-0.9829	-0.2029	0.0826	-106.9336	-16.4795	-13.0005
-0.9658	-0.1996	0.0944	-104.2480	-14.1602	-13.0005
-0.9556	-0.1958	0.0978	-100.7690	-11.5967	-12.2070
-0.9557	-0.1871	0.1036	-98.0225	-10.0098	-10.6201
-0.9545	-0.1808	0.1122	-95.7642	-9.7046	-8.3618
-0.9508	-0.1738	0.1182	-93.7500	-9.9487	-6.7139
-0.9528	-0.1624	0.1200	-91.6748	-10.3760	-5.1270
-0.9517	-0.1519	0.1252	-89.8438	-10.3149	-4.1504
-0.9302	-0.1509	0.1270	-87.7686	-9.5215	-4.2114
-0.9058	-0.1505	0.1144	-86.3037	-9.7656	-5.1880
-0.8953	-0.1458	0.1094	-85.8765	-10.1318	-6.4697
-0.8661	-0.1366	0.1089	-87.4634	-12.3901	-7.9956
-0.8124	-0.1160	0.1234	-91.6138	-16.8457	-9.3384
-0.7506	-0.0756	0.1497	-98.4497	-23.8647	-10.4370
-0.6846	-0.0149	0.1865	-106.6284	-34.6069	-11.5356
-0.6703	0.0566	0.2368	-114.5630	-51.7578	-13.1836
-0.7511	0.1150	0.3324	-117.7368	-72.9370	-13.7329
-1.0127	0.1615	0.4919	-108.8867	-93.2617	-8.1787
-1.1951	0.2247	0.7555	-85.6934	-103.5156	3.4790
-1.3473	0.2722	1.1177	-35.0952	-93.6279	24.5361
-1.5028	0.3188	1.3142	51.7578	-76.8433	49.8047
-1.5566	0.3906	1.3567	169.6777	-45.2881	73.8525
-1.3739	0.5514	1.1615	304.4434	5.3101	91.6138
-1.0125	0.6058	0.9141	436.9507	68.7866	90.5762
-0.7804	0.6527	0.7289	558.6548	116.6382	67.5049
-0.7758	0.8270	0.3975	673.4009	144.7144	24.7192
-0.9137	0.9138	-0.1674	772.3999	162.4146	-27.8931
-1.1212	0.8875	-0.7759	829.8950	185.1196	-70.5566
-1.2196	0.7761	-1.1322	827.6978	222.8394	-86.1816
-0.8300	0.3320	-1.2714	765.5640	254.2725	-68.1152
-0.3572	-0.3787	-1.1798	637.0850	240.4175	-18.4937
-0.4689	-0.7133	-1.0405	472.9004	185.6079	31.4331
-0.7573	-0.6519	-0.9410	301.5137	103.5156	54.9927
-0.9725	-0.5859	-0.8944	151.1230	16.8457	38.6963
-1.0599	-0.4578	-0.9420	34.1187	-57.3730	2.6245
-1.1409	-0.3086	-0.8140	-50.7202	-121.5820	-30.2734
-1.1958	-0.1259	-0.8960	-98.8159	-156.7383	-63.4766
-1.3585	0.0266	-0.8813	-124.6948	-161.7432	-83.2520
-1.5553	0.1212	-0.7129	-133.3008	-153.8086	-76.2329
-1.5681	0.1493	-0.5521	-120.6665	-129.2725	-55.4199
-1.4961	0.0406	-0.4718	-96.9849	-96.7407	-32.6538
-1.3254	-0.1183	-0.4275	-80.7495	-66.9556	-11.2915
-1.1515	-0.2301	-0.4072	-79.1626	-45.8984	2.9907
-1.0391	-0.2980	-0.3831	-90.6372	-32.0435	10.6812
-0.9968	-0.3313	-0.3348	-109.9854	-27.1606	14.5264
-0.9767	-0.3224	-0.3062	-131.4087	-27.7100	14.8926
-0.9562	-0.2986	-0.3014	-153.0762	-29.6631	12.6953
-0.9651	-0.2705	-0.3036	-174.4385	-29.3579	8.7280
-0.9269	-0.2396	-0.3568	-193.4814	-25.5737	2.1973
-0.8962	-0.2155	-0.3879	-211.1816	-20.7520	-2.9297
-0.9034	-0.1753	-0.3411	-225.9521	-21.8506	-3.4790
-0.9419	-0.1360	-0.2490	-231.5063	-25.0854	-2.6855
-0.9912	-0.1333	-0.1658	-226.0132	-26.0010	-3.4790
-1.0321	-0.1560	-0.1106	-214.2334	-22.4609	-5.7373
-1.0360	-0.1678	-0.0601	-201.4160	-15.9302	-7.5684
-1.0215	-0.1650	-0.0249	-189.2090	-7.0801	-9.0332
-0.9921	-0.1669	-0.0164	-179.3823	2.3804	-10.9253
-0.9618	-0.1609	-0.0198	-173.5229	9.5825	-13.3057
-0.9390	-0.1595	-0.0282	-170.4712	13.6108	-14.1602
-0.9523	-0.1584	-0.0302	-170.7153	13.8550	-14.8926
-0.9576	-0.1531	-0.0369	-172.4243	10.4370	-16.2354
-0.9204	-0.1486	-0.0533	-175.1709	4.3335	-16.8457
-0.9269	-0.1543	-0.0598	-178.1616	-3.7231	-17.0288
-0.9727	-0.1451	-0.0541	-180.3589	-11.7798	-17.5781
-1.0049	-0.1263	-0.0292	-180.3589	-19.7144	-18.1885
-1.0204	-0.1160	-0.0117	-176.5137	-22.3389	-18.0664
-1.0322	-0.1151	0.0032	-169.9829	-20.8130	-17.3950
-1.0294	-0.1124	0.0187	-162.6587	-18.3105	-16.2964
-1.0026	-0.1036	0.0315	-155.5176	-16.1743	-15.6860
-0.9982	-0.1006	0.0380	-148.5596	-14.4043	-15.0146
-1.0148	-0.0963	0.0415	-142.4561	-12.6953	-13.6108
-1.0214	-0.0890	0.0515	-136.8408	-10.9253	-11.9019
-1.0088	-0.0878	0.0720	-132.5073	-8.9722	-10.2539
-0.9875	-0.0914	0.0848	-127.5635	-7.6904	-8.7891
-0.9636	-0.0967	0.0920	-121.6431	-7.3853	-7.7515
-0.9437	-0.1066	0.0896	-115.6006	-8.3618	-7.5684
-0.9395	-0.1140	0.0856	-109.2529	-9.5825	-8.4839
-0.9298	-0.1133	0.0898	-103.8208	-11.7798	-8.6670
-0.9231	-0.1093	0.0955	-99.1211	-14.8315	-8.2397
-0.9292	-0.1102	0.0979	-94.3604	-18.1274	-8.2397
-0.9396	-0.1047	0.0963	-89.9048	-20.4468	-7.9956
-0.9573	-0.0953	0.0941	-85.8765	-20.8740	-6.3477
-0.9697	-0.0957	0.0889	-82.6416	-19.1650	-3.7842
-0.9567	-0.0917	0.0934	-80.3833	-16.6626	0.5493
-0.9319	-0.0809	0.1044	-79.2847	-14.5874	5.6763
-0.9120	-0.0719	0.1165	-77.9419	-13.8550	10.9253
-0.8862	-0.0631	0.1331	-77.5146	-15.1978	16.5405
-0.8483	-0.0398	0.1514	-78.0029	-19.5313	23.5596
-0.7900	0.0038	0.1732	-79.4678	-27.0996	30.2734
-0.7115	0.0387	0.1843	-80.6885	-39.6118	36.0107
-0.6886	0.0658	0.2338	-81.5430	-56.7017	39.2456
-0.8492	0.0986	0.3234	-74.5850	-74.6460	40.5884
-0.9816	0.1505	0.5016	-55.2368	-89.4775	43.7622
-1.1638	0.2194	0.8322	-18.6768	-98.7549	51.7578
-1.4438	0.3458	1.1476	46.9971	-106.0181	68.7256
-1.5496	0.5037	1.2142	149.5361	-88.9282	85.9985
-1.5469	0.5059	0.9520	276.6113	-41.5649	94.8486
-1.3541	0.5165	0.7051	400.8179	29.9072	97.4121
-1.1401	0.7422	0.6874	519.7144	112.6099	85.0830
-1.0270	0.9558	0.5173	649.2920	180.9082	53.6499
-0.9192	1.0476	0.0184	781.6772	218.5059	10.6812
-1.0018	1.0892	-0.8832	882.8125	241.2720	-42.9688
-1.2523	1.0652	-1.3905	911.0718	271.1182	-94.4214
-1.1680	0.6880	-1.4576	881.9580	313.5986	-109.7412
0.0376	0.3136	-1.0643	807.4341	318.0542	-68.0542
0.5015	-0.0748	-0.7092	689.4531	195.4346	-13.2446
0.2915	-0.7074	-0.8636	542.3584	-13.3057	22.3999
-0.7488	-1.1577	-1.3749	362.3047	-197.3877	38.4521
-1.8561	-0.7732	-1.4724	166.2598	-268.1274	14.9536
-2.0934	-0.1595	-1.3307	12.6953	-241.3940	-38.0249
-1.8727	0.1398	-1.1794	-69.3359	-172.6685	-73.2422
-1.5717	0.2610	-1.1614	-95.9473	-108.2153	-72.7539
-1.4489	0.2677	-1.1067	-96.6187	-66.4673	-55.6641
-1.2661	0.1766	-1.0131	-93.8110	-39.2456	-37.2925
-1.1844	0.0171	-0.8711	-89.7827	-15.9302	-23.9258
-1.0796	-0.1044	-0.7488	-87.9517	1.0986	-14.4653
-0.9202	-0.2307	-0.6393	-97.3511	12.6343	-12.2681
-0.8270	-0.3103	-0.5498	-115.9668	18.2495	-11.9019
-0.8073	-0.3431	-0.4844	-142.0288	15.5640	-9.8267
-0.8069	-0.2964	-0.4370	-172.2412	4.6997	-10.8032
-0.8502	-0.2076	-0.4183	-199.0967	-6.7139	-13.1836
-0.9059	-0.1338	-0.4034	-217.9565	-14.8926	-13.8550
-0.9709	-0.0731	-0.3519	-229.4922	-18.9819	-12.6343
-1.0210	-0.0428	-0.2629	-230.6519	-14.9536	-9.2163
-0.9913	-0.0533	-0.1547	-221.9238	-6.4697	-4.5776
-0.9464	-0.1085	-0.1187	-207.7637	-2.6245	0.9766
-0.9783	-0.1542	-0.0830	-195.3735	0.6104	7.0801
-1.0215	-0.1455	-0.0890	-186.7065	8.8501	12.2681
-0.9913	-0.1464	-0.0933	-180.6030	18.4326	14.6484
-0.9260	-0.1492	-0.0912	-177.1851	25.5127	14.8926
-0.8700	-0.1531	-0.1091	-174.6216	27.0996	12.4512
-0.8400	-0.1672	-0.1167	-174.0723	21.7285	7.8735
-0.8446	-0.1725	-0.1422	-174.4995	11.5356	2.6855
-0.8878	-0.1692	-0.1780	-175.8423	0.0000	-2.9297
-0.9423	-0.1672	-0.1694	-178.2227	-10.3149	-6.8970
-0.9800	-0.1598	-0.1416	-180.6641	-19.8975	-7.8125
-1.0237	-0.1561	-0.1136	-180.3589	-24.7192	-8.0566
-1.0493	-0.1559	-0.1008	-176.2085	-23.8647	-7.5684
-1.0365	-0.1615	-0.0944	-170.5933	-20.8130	-6.1035
-1.0337	-0.1692	-0.0889	-165.2832	-16.7847	-4.1504
-1.0222	-0.1638	-0.0730	-160.3394	-13.1226	-3.3569
-0.9983	-0.1663	-0.0658	-155.6396	-10.9253	-4.2725
-0.9756	-0.1691	-0.0637	-151.1841	-9.3994	-5.2490
-0.9692	-0.1680	-0.0522	-147.3999	-9.2163	-5.4321
-0.9690	-0.1636	-0.0607	-143.2495	-10.3760	-6.6528
-0.9756	-0.1704	-0.0558	-140.2588	-10.6812	-8.1787
-0.9698	-0.1729	-0.0566	-138.0005	-12.3291	-8.1177
-0.9393	-0.1681	-0.0524	-136.1694	-15.3198	-8.3618
-0.9268	-0.1737	-0.0402	-134.1553	-18.3105	-8.7280
-0.9388	-0.1678	-0.0187	-132.5073	-22.3389	-8.5449
-0.9542	-0.1497	-0.0018	-130.3711	-26.3672	-7.9956
-0.9537	-0.1475	0.0084	-127.8687	-28.5645	-8.1177
-0.9498	-0.1484	0.0137	-124.7559	-29.4800	-8.1177
-0.9540	-0.1378	0.0211	-121.4600	-28.6865	-7.5073
-0.9552	-0.1292	0.0245	-118.8354	-26.1841	-6.7139
-0.9370	-0.1250	0.0332	-116.0278	-22.9492	-5.6763
-0.9121	-0.1189	0.0389	-113.2202	-21.2402	-3.9062
-0.8993	-0.1055	0.0610	-111.3281	-21.9116	-1.6479
-0.8971	-0.1006	0.0815	-108.0322	-24.2310	0.1831
-0.8961	-0.1121	0.0980	-102.7222	-28.8086	2.1973
-0.8872	-0.0979	0.1190	-96.9849	-34.4238	5.8594
-0.8988	-0.0625	0.1605	-89.9048	-40.8936	10.1929
-0.9238	-0.0399	0.2098	-78.3691	-51.5747	16.8457
-1.1018	0.0045	0.3461	-58.9600	-67.0776	27.5879
-1.3531	0.0851	0.5889	-26.9165	-78.2471	44.2505
-1.4675	0.1477	0.7648	27.2827	-69.9463	63.5986
-1.5918	0.2048	0.8906	108.7646	-35.7666	83.7402
-1.6636	0.3135	0.9701	212.2803	10.4980	108.7646
-1.7201	0.5573	0.9460	333.8623	77.2705	122.8638
-1.6936	0.7628	0.8700	474.8535	177.3682	115.2954
-1.5392	0.9519	0.4994	637.8174	293.5181	90.8813
-1.2067	1.0825	-0.0844	800.5981	386.2305	48.6450
-1.3689	1.0864	-0.9515	928.5278	452.3315	-7.6294
-1.6733	0.9960	-1.9440	976.9897	516.7236	-47.3633
-1.2783	0.8013	-2.0330	921.4478	589.4165	-41.7480
-0.1199	-0.0151	-1.6141	812.7441	623.0469	-3.2349
0.9934	-0.8719	-0.8977	663.8794	550.0488	45.8374
1.3677	-1.3007	-0.3383	477.0508	334.4727	74.4629
0.7605	-1.3145	-0.1725	293.2739	55.4810	62.3779
-0.0963	-0.9540	-0.5316	152.0996	-192.8101	2.1973
-0.7200	-0.7135	-0.9633	51.8188	-360.3516	-78.4302
-1.3793	-0.3938	-1.0834	-18.2495	-423.0347	-172.3633
-1.6793	0.0193	-0.9207	-64.3311	-397.8882	-214.3555
-1.9332	0.2272	-0.7677	-78.9795	-327.4536	-193.4814
-2.1572	0.2585	-0.6934	-69.1528	-235.4736	-142.0898
-2.0453	0.1764	-0.6781	-53.7109	-137.2070	-88.7451
-1.8264	0.0337	-0.6121	-40.7715	-41.3818	-44.6777
-1.4189	-0.1390	-0.5464	-34.4849	34.7900	-14.4653
-1.0913	-0.3163	-0.4446	-41.5649	79.2236	0.2441
-0.9183	-0.4023	-0.3378	-60.4858	91.1865	4.3945
-0.7377	-0.4397	-0.2939	-85.1440	81.9092	1.5869
-0.6143	-0.4229	-0.2590	-112.3657	55.8472	-7.0801
-0.6055	-0.3251	-0.1989	-137.1460	16.1133	-18.9819
-0.7491	-0.1887	-0.1251	-151.1230	-29.5410	-30.2734
-0.9080	-0.1110	-0.0889	-149.2920	-66.9556	-36.8042
-1.0431	-0.1017	-0.0304	-135.1929	-87.1582	-35.6445
-1.1608	-0.1211	0.0162	-117.0044	-93.3838	-26.3062
-1.2227	-0.1497	0.0234	-98.2666	-88.3179	-14.0991
-1.2423	-0.1855	0.0105	-82.3364	-71.7163	-2.8076
-1.1954	-0.2242	-0.0077	-71.3501	-46.8750	6.3477
-1.0985	-0.2676	-0.0438	-67.0776	-21.4844	12.4512
-1.0103	-0.2910	-0.0703	-69.6411	-2.3804	14.8926
-0.8986	-0.2671	-0.1028	-77.3315	6.6528	14.2822
-0.7915	-0.2792	-0.1726	-85.6934	4.5166	10.0708
-0.7889	-0.2937	-0.1875	-96.2524	-10.1318	3.7231
-0.8605	-0.2452	-0.1688	-106.6895	-28.9307	-0.9766
-0.9111	-0.2224	-0.1577	-110.4126	-43.7622	-4.0894
-0.9694	-0.2303	-0.1769	-109.4971	-53.4668	-5.6763
-1.0455	-0.2159	-0.1807	-107.5439	-57.3120	-5.5542
-1.1097	-0.2187	-0.1852	-104.2480	-51.5137	-2.8076
-1.1296	-0.2267	-0.1764	-101.4404	-40.8936	-0.8545
-1.0867	-0.2177	-0.2084	-98.8159	-27.5879	1.0986
-1.0475	-0.2380	-0.2101	-97.0459	-14.8315	1.9531
-1.0184	-0.2421	-0.1995	-96.7407	-5.5542	0.7324
-0.9591	-0.2334	-0.1885	-96.2524	-0.0610	-1.0376
-0.9038	-0.2507	-0.1937	-95.7642	2.0752	-4.0283
-0.8950	-0.2596	-0.1472	-96.3135	-1.2817	-6.8359
-0.9117	-0.2462	-0.1031	-96.0083	-7.5684	-8.9111
-0.9385	-0.2460	-0.0908	-93.0176	-11.5356	-10.6812
-0.9417	-0.2533	-0.0944	-89.8438	-13.3057	-11.5356
-0.9513	-0.2542	-0.1027	-88.9282	-13.7329	-10.9863
-0.9684	-0.2661	-0.1071	-90.0879	-13.2446	-9.1553
-0.9624	-0.2512	-0.0985	-92.8345	-12.2681	-7.0190
-0.9482	-0.2491	-0.0815	-94.7876	-11.3525	-6.2256
-0.9519	-0.2507	-0.0822	-95.6421	-11.1084	-6.0425
-0.9312	-0.2501	-0.0944	-95.2759	-11.2305	-6.2866
-0.9141	-0.2631	-0.1193	-96.0083	-12.0239	-6.1035
-0.9197	-0.2662	-0.1277	-99.1211	-15.0146	-5.4932
-0.9181	-0.2570	-0.1263	-103.3325	-18.3716	-5.3711
-0.9067	-0.2513	-0.1078	-105.7129	-21.6064	-6.6528
-0.9045	-0.2480	-0.0989	-105.7739	-25.3906	-8.5449
-0.9252	-0.2458	-0.0992	-103.9429	-28.1372	-10.4370
-0.9510	-0.2437	-0.0974	-101.5015	-28.6255	-11.9019
-0.9409	-0.2360	-0.0905	-98.6938	-27.5879	-12.2681
-0.9292	-0.2473	-0.0831	-95.5811	-27.1606	-12.3901
-0.9635	-0.2469	-0.0792	-92.9565	-28.3203	-11.4746
-0.9918	-0.2440	-0.0778	-89.8438	-29.1748	-9.5215
-0.9706	-0.2528	-0.0707	-87.2803	-28.2593	-7.5684
-0.9446	-0.2556	-0.0618	-86.1206	-27.7710	-6.1646
-0.9307	-0.2428	-0.0521	-85.8154	-28.8696	-5.2490
-0.9177	-0.2296	-0.0455	-86.1816	-30.5786	-5.3711
-0.9095	-0.2202	-0.0372	-87.2192	-31.9214	-6.1035
-0.9014	-0.2085	-0.0342	-89.2334	-33.1421	-7.8735
-0.9011	-0.1862	-0.0281	-91.0645	-33.4473	-10.6201
-0.9064	-0.1858	-0.0232	-91.5527	-32.4097	-14.1602
-0.9525	-0.1417	0.0485	-90.5762	-32.1045	-16.8457
-1.0040	-0.0490	0.1239	-86.1816	-31.4941	-16.9678
-1.0923	-0.0067	0.2001	-74.2188	-27.0386	-14.5874
-1.2189	0.0144	0.3501	-52.2461	-14.2212	-7.2632
-1.2347	0.0685	0.5432	-17.4561	8.2397	4.5776
