aX	aY	aZ	gX	gY	gZ	
-1.0400	-0.0481	-0.1766	195.6177	50.3540	72.9370
-0.9755	-0.0713	-0.1312	196.4111	49.8047	73.4863
-0.9542	-0.0692	-0.0789	196.1670	47.1191	74.2798
-0.9825	-0.0411	-0.0638	197.3877	41.2598	75.3784
-0.9990	-0.0371	-0.0757	199.9512	34.5459	77.2095
-1.0001	-0.0438	-0.0760	201.9043	27.4658	79.1626
-1.0044	-0.0367	-0.0560	205.1392	22.9492	81.1768
-1.0098	-0.0293	-0.0768	210.0220	20.3857	83.0688
-1.0326	-0.0332	-0.1035	215.0269	20.0195	83.1909
-1.0359	-0.0540	-0.0968	219.3604	23.4375	82.3975
-1.0111	-0.0696	-0.1082	223.3276	32.6538	79.6509
-0.9817	-0.0944	-0.1340	226.0132	45.4102	73.7305
-0.9604	-0.1302	-0.1226	227.5391	57.9224	64.1479
-0.9187	-0.1504	-0.1204	228.2104	68.9697	55.4199
-0.8633	-0.1641	-0.1686	226.8066	76.3550	47.4243
-0.8182	-0.1937	-0.1919	222.5952	79.2236	39.9170
-0.7986	-0.2264	-0.1606	217.0410	76.2329	35.1563
-0.8418	-0.2377	-0.1138	211.6089	70.1294	33.2031
-0.9076	-0.2137	-0.0575	208.1299	64.9414	32.5317
-0.9360	-0.2073	-0.0886	207.0312	62.1338	33.6304
-0.9081	-0.2463	-0.1414	203.2471	61.8286	35.2173
-0.8556	-0.2809	-0.1708	193.9697	62.6831	36.3770
-0.8267	-0.2968	-0.1826	181.0913	61.4014	36.7432
-0.8275	-0.2889	-0.1805	167.7856	56.8848	35.7666
-0.8275	-0.2919	-0.1693	158.0200	49.8047	33.2642
-0.8197	-0.2905	-0.1440	152.5879	42.4194	31.0669
-0.8379	-0.2728	-0.1063	151.3672	34.1797	28.7476
-0.8828	-0.2596	-0.0729	155.4565	26.7944	25.9399
-0.9115	-0.2601	-0.0641	163.5132	23.0713	23.9258
-0.9055	-0.2817	-0.0969	172.4854	22.8271	22.0947
-0.8959	-0.3112	-0.1393	177.1851	25.3906	21.1792
-0.9193	-0.2954	-0.1375	177.4902	30.5786	20.1416
-0.9047	-0.2759	-0.1205	178.4668	34.7290	20.9961
-0.8517	-0.2830	-0.1255	178.8330	34.2407	25.3906
-0.8339	-0.3088	-0.1519	177.8564	29.6631	31.7993
-0.8325	-0.3197	-0.1831	174.7437	24.0479	37.2925
-0.8195	-0.3276	-0.2067	169.9829	15.6250	39.4897
-0.8202	-0.3507	-0.2458	163.5742	4.1504	38.0249
-0.8412	-0.3585	-0.2750	157.4097	-7.3853	33.1421
-0.8738	-0.3511	-0.3033	153.1372	-16.8457	26.6724
-0.8773	-0.3551	-0.3854	149.0479	-20.1416	19.5923
-0.7981	-0.4182	-0.4883	140.9912	-16.2354	11.9019
-0.6897	-0.5605	-0.6475	123.5352	-10.8032	6.0425
-0.6892	-0.7621	-0.8770	88.2568	-5.9204	1.3428
-0.7998	-1.0022	-1.2009	25.9399	4.7607	-4.0283
-0.8590	-1.1860	-1.3083	-72.1436	25.1465	-6.1646
-0.8396	-1.1519	-1.2632	-199.7070	45.5322	-9.6436
-0.8384	-0.9399	-1.3030	-327.1484	47.9126	-19.1650
-0.8884	-0.4957	-1.3757	-442.7490	30.5786	-28.2593
-0.9192	-0.0929	-1.5861	-549.2554	-5.1270	-31.8604
-0.9050	0.1036	-1.9192	-644.4092	-33.0811	-42.9688
-0.8386	0.3688	-2.1307	-731.0791	-36.1328	-63.8428
-0.6045	0.7417	-2.0223	-797.3022	-33.2031	-92.2241
-0.2985	0.8883	-1.8256	-836.3037	-40.4663	-122.1924
-0.1736	0.9882	-1.3478	-855.3467	-61.0352	-141.5405
-0.2668	1.0486	-0.9572	-840.3931	-100.3418	-149.5361
-0.4912	1.1337	-0.6820	-807.0068	-152.0386	-158.0200
-0.6294	1.0839	-0.5986	-765.3198	-193.7866	-169.6777
-0.9135	1.3690	0.2225	-737.1826	-219.9097	-195.9229
-1.3860	1.6815	0.7765	-663.8184	-231.6895	-214.4775
-1.8435	1.8329	1.1250	-546.3257	-210.0220	-210.0830
-2.0707	1.8842	1.4374	-424.9878	-165.5884	-183.0444
-2.1323	1.7972	1.5558	-302.3682	-112.9150	-142.5171
-1.9702	1.6896	1.4636	-183.2886	-60.3027	-91.9189
-1.7135	1.5577	1.2347	-79.5288	-19.1650	-31.0059
-1.4745	1.3898	1.0009	2.6855	9.3384	32.4097
-1.2646	1.1876	0.8059	67.8101	25.8179	89.9048
-1.0969	0.9609	0.5948	120.5444	31.2500	132.7515
-1.0048	0.7675	0.3958	159.7290	29.1748	157.8979
-0.9696	0.6321	0.1880	186.7676	21.4844	168.0908
-0.9402	0.5006	0.0189	201.9653	14.0381	169.8608
-0.9778	0.3938	-0.0703	205.8105	11.6577	164.9170
-1.0679	0.2971	-0.1174	205.0781	14.9536	154.4800
-1.1836	0.3461	0.1183	192.1997	23.6206	142.9443
-1.1495	0.2131	-0.1323	202.6978	29.4189	126.7090
-1.0477	-0.0411	-0.2758	219.7266	23.6816	121.7651
-1.0015	0.0001	-0.2762	215.4541	37.3535	114.3799
-0.9967	-0.0564	-0.2384	212.8296	47.7905	103.5767
-1.0010	-0.1254	-0.1924	213.5010	49.8657	93.0786
-1.0455	-0.1475	-0.1318	215.6372	50.2930	87.2192
-0.9951	-0.1642	-0.0828	221.7407	55.0537	85.2051
-0.8909	-0.1619	-0.0579	231.3843	60.6079	83.9233
-0.8253	-0.1676	-0.0616	240.9058	61.7676	82.2754
-0.8353	-0.1573	-0.0461	248.8403	58.5938	79.4067
-0.8594	-0.1486	-0.0502	257.3853	52.7344	75.5005
-0.8694	-0.1401	-0.0385	266.0522	48.7061	71.4722
-0.8806	-0.1343	-0.0271	275.3296	46.3257	65.9790
-0.9034	-0.1261	-0.0247	283.0200	46.7529	58.4717
-0.9226	-0.1298	-0.0635	288.9404	50.7813	49.9268
-0.9164	-0.1422	-0.1140	291.5649	58.5938	41.1987
-0.8732	-0.1705	-0.2002	288.5742	65.4907	34.0576
-0.8322	-0.2107	-0.2330	279.9683	67.8711	29.7852
-0.8014	-0.2415	-0.2000	268.4326	65.2466	27.9541
-0.8262	-0.2570	-0.1973	256.9580	60.5469	26.1230
-0.8983	-0.2539	-0.1639	246.9482	58.1055	24.7192
-0.9313	-0.2423	-0.1204	239.9292	57.3120	25.8179
-0.9248	-0.2456	-0.1088	235.4736	56.8237	27.4658
-0.9225	-0.2628	-0.1565	231.7505	56.0303	28.0762
-0.8857	-0.3038	-0.2095	225.1587	55.4810	28.0151
-0.7957	-0.3285	-0.2284	213.4399	51.6968	28.4424
-0.7314	-0.3335	-0.2451	199.0967	39.9170	27.5879
-0.7302	-0.3481	-0.2598	185.8521	21.5454	23.8037
-0.7820	-0.3593	-0.2563	174.7437	1.0986	19.5313
-0.8782	-0.3447	-0.2494	166.3818	-15.9302	15.1367
-0.9569	-0.3363	-0.2474	161.3159	-24.3530	12.2681
-1.0117	-0.3206	-0.2314	156.9824	-22.4609	11.8408
-1.0266	-0.3064	-0.2141	154.8462	-13.3057	14.0991
-1.0199	-0.2947	-0.2137	153.2593	-0.4272	17.4561
-0.9861	-0.2975	-0.2374	153.1982	12.6953	21.7896
-0.9313	-0.3159	-0.2603	152.4048	22.8271	26.1841
-0.8708	-0.3322	-0.2786	149.2310	28.3813	29.0527
-0.8192	-0.3373	-0.2959	144.8975	27.9541	29.6631
-0.8269	-0.3058	-0.3131	141.3574	23.1934	27.7100
-0.8380	-0.2681	-0.3085	141.2964	13.6719	24.2310
-0.8622	-0.2572	-0.3263	143.7988	2.8076	20.5078
-0.9310	-0.2374	-0.3419	148.3154	-1.7700	17.6392
-0.9845	-0.2260	-0.3523	155.3955	3.3569	17.1509
-0.9708	-0.2565	-0.3993	161.2549	17.4561	19.0430
-0.8551	-0.3326	-0.4919	160.5835	37.0483	20.7520
-0.6433	-0.4702	-0.6747	148.0103	50.2930	21.4844
-0.5035	-0.7389	-1.0220	116.0278	45.7764	18.6157
-0.5632	-1.0992	-1.4333	48.8281	32.0435	10.1929
-0.8260	-1.3649	-1.5640	-67.0776	26.5503	3.2349
-0.9943	-1.2094	-1.3254	-213.5620	38.7573	-3.5400
-0.9985	-0.8873	-1.3580	-343.8110	49.2554	-23.3765
-0.9130	-0.6245	-1.5406	-463.8062	48.5840	-50.8423
-0.7675	-0.3085	-1.7369	-589.9658	28.5034	-69.3970
-0.5713	0.0973	-1.9960	-711.1816	-4.1504	-91.1255
-0.4275	0.5281	-2.2419	-810.4248	-25.3296	-132.8735
-0.2876	1.0215	-2.2367	-880.8594	-22.8882	-188.5986
-0.1337	1.5122	-1.9968	-913.4521	-10.2539	-238.9526
-0.0928	1.8153	-1.6063	-907.3486	-14.2212	-255.0049
-0.1421	1.7689	-0.9863	-874.6338	-28.1372	-223.9990
-0.9240	1.2666	-0.2643	-838.3179	-36.3159	-178.0396
-1.5876	1.4750	0.9879	-799.7437	-55.3589	-154.1748
-1.6477	2.0621	2.1914	-658.8745	-87.8906	-134.1553
-1.6904	1.9965	2.4479	-448.6694	-142.5171	-83.9844
-2.0231	1.5692	2.1906	-262.8174	-173.8892	-22.5830
-2.0673	1.4541	1.8900	-128.5400	-147.2168	35.6445
-1.6453	1.4896	1.6234	-29.7241	-83.9844	89.5386
-1.2035	1.4012	1.2721	50.4150	-27.3438	128.0518
-0.9329	1.1781	0.8541	112.3047	-2.9297	144.9585
-0.8068	0.8535	0.4956	152.5879	-4.9438	140.3198
-0.8743	0.5070	0.1708	172.7295	-20.7520	117.6758
-1.0321	0.2832	-0.0693	175.5981	-32.5928	88.2568
-1.1599	0.1608	-0.2357	170.0439	-25.9399	60.6689
-1.1704	-0.0099	-0.3397	160.2173	0.5493	39.0015
-1.0927	-0.1672	-0.3743	145.6909	27.4658	26.9165
-1.0199	-0.2285	-0.3578	127.5635	40.9546	25.2686
-0.9692	-0.2540	-0.3273	111.4502	42.8467	28.5645
-0.9098	-0.2802	-0.3016	98.1445	36.7432	37.9639
-0.8756	-0.2894	-0.2844	86.7920	26.0620	49.8657
-0.8778	-0.2633	-0.2604	76.6602	14.4653	58.8989
-0.9012	-0.2251	-0.1960	67.6270	5.2490	63.5986
-0.9438	-0.1986	-0.0945	62.4390	-0.9155	64.5752
-0.9844	-0.1780	-0.0083	62.9272	-5.6763	62.3169
-0.9877	-0.1497	0.0510	67.0166	-5.8594	59.1431
-0.9928	-0.1202	0.0939	73.9746	-1.8921	55.6030
-0.9757	-0.1025	0.1152	83.0078	4.8828	52.5513
-0.9558	-0.0913	0.1160	92.5903	11.9019	49.2554
-0.9905	-0.0848	0.1210	102.9053	17.0898	44.4946
-0.9952	-0.0750	0.1361	113.5864	23.4375	40.5884
-0.9895	-0.0697	0.1460	125.8545	32.8369	38.0859
-0.9843	-0.0820	0.1605	139.4043	41.9312	36.8652
-0.9789	-0.1028	0.1649	153.1982	48.1567	37.0483
-0.9678	-0.1195	0.1545	165.0391	49.4385	38.4521
-0.9525	-0.1283	0.1422	174.4385	49.8047	38.5132
-0.9303	-0.1285	0.1147	182.4951	49.9268	37.1704
-0.9285	-0.1375	0.0875	187.8052	45.8374	35.5835
-0.9341	-0.1587	0.0492	191.5894	38.2080	32.3486
-0.9419	-0.1644	0.0206	192.7490	31.4331	27.9541
-0.9565	-0.1785	0.0077	193.1152	25.2075	24.5972
-0.9761	-0.2007	-0.0084	193.0542	19.9585	22.0337
-0.9916	-0.2187	-0.0153	192.7490	16.9067	20.7520
-0.9878	-0.2372	-0.0369	191.8335	16.1743	20.8130
-0.9537	-0.2631	-0.0852	189.2700	15.8691	21.7285
-0.9370	-0.2842	-0.0964	183.8989	14.7705	22.5830
-0.9561	-0.2841	-0.0951	178.0396	13.3667	23.0713
-0.9852	-0.2795	-0.0989	173.4009	15.5640	23.5596
-0.9965	-0.2872	-0.1052	169.7388	22.2168	23.0713
-0.9723	-0.3031	-0.1167	164.8560	30.7007	21.8506
-0.9517	-0.3160	-0.1436	158.7524	37.8418	19.8975
-0.9469	-0.3271	-0.1653	152.4048	42.5415	18.1885
-0.8683	-0.3414	-0.1619	144.0430	45.2271	17.1509
-0.7749	-0.3562	-0.1578	133.8501	39.9170	17.2119
-0.7727	-0.3679	-0.1484	125.0610	26.3062	15.5640
-0.8044	-0.3666	-0.1466	118.8354	10.6812	12.7563
-0.8154	-0.3485	-0.1615	113.4644	-6.2866	10.5591
-0.8435	-0.3397	-0.1534	110.8398	-23.9868	7.5073
-0.9060	-0.3320	-0.1322	110.7788	-36.8042	3.9062
-0.9590	-0.3160	-0.1393	113.0371	-39.9170	0.4883
-0.9731	-0.2971	-0.1831	116.0889	-34.6069	-1.4648
-0.9669	-0.3037	-0.1973	119.8730	-24.8413	-2.5635
-0.9410	-0.3019	-0.1951	122.9858	-13.6719	-2.1973
-0.9236	-0.2856	-0.2089	127.1362	-1.8921	-1.2207
-0.9016	-0.2771	-0.2397	133.1177	7.4463	0.0610
-0.8901	-0.2716	-0.2911	139.4653	13.1836	1.0376
-0.8918	-0.3090	-0.4358	144.6533	16.9067	-0.4272
-0.8627	-0.5217	-0.8020	135.4980	22.9492	-3.8452
-0.8716	-0.8840	-1.1967	80.9937	37.6587	-8.8501
-0.9713	-1.1604	-1.4393	-31.1279	78.9185	-13.7329
-0.9332	-1.1200	-1.3960	-174.9268	141.5405	-23.9868
-0.8127	-0.8247	-1.4485	-302.1240	186.7065	-36.0718
-0.6553	-0.3901	-1.8627	-421.1426	192.3218	-40.0391
-0.5809	-0.1040	-2.1868	-550.2319	156.2500	-42.6636
-0.4370	0.1703	-2.3317	-677.1851	112.7319	-55.9692
-0.0475	0.4976	-2.4191	-773.5596	73.8525	-78.9795
0.2852	0.6742	-2.2909	-832.7026	9.1553	-110.0464
0.3335	0.7651	-1.9331	-871.7651	-71.4111	-142.0898
-0.0621	1.2542	-1.5398	-885.9863	-136.8408	-162.7808
-0.9827	1.4280	-0.6736	-847.2900	-166.8091	-151.8555
-1.5604	1.5459	0.1860	-799.9878	-196.2280	-162.4756
-1.6345	2.0294	1.1567	-713.6841	-188.6597	-154.9683
-1.7678	2.3004	1.7509	-569.4580	-168.8232	-115.1123
-1.9984	2.3425	2.0730	-414.0015	-159.1187	-70.6177
-2.0364	2.2036	1.9064	-264.2212	-132.5684	-23.6816
-1.7985	1.9984	1.6483	-139.2822	-89.1724	23.0713
-1.5099	1.7583	1.3942	-45.1660	-49.9878	69.0918
-1.2703	1.4935	1.0848	30.0293	-21.0571	103.2104
-1.0415	1.1884	0.7490	89.1113	-7.9346	125.0610
-0.8962	0.8389	0.4381	128.9673	-12.7563	133.9722
-0.9292	0.5795	0.1866	151.5503	-26.2451	129.3945
-1.0693	0.4097	-0.0073	165.1001	-32.8369	118.4082
-1.1870	0.2335	-0.1654	175.6592	-24.1699	104.4312
-1.2097	0.0446	-0.2592	181.6406	-6.4697	87.3413
-1.1545	-0.0715	-0.3051	183.0444	12.8174	69.6411
-1.1038	-0.1290	-0.3314	182.3120	28.5645	55.9692
-1.0712	-0.1718	-0.3333	180.1147	38.9404	49.1333
-1.0841	-0.1820	-0.3064	176.0864	42.7856	47.9126
-1.0967	-0.1896	-0.2976	171.3867	40.2222	50.6592
-1.0530	-0.1849	-0.2909	164.0625	35.8276	55.2979
-1.0066	-0.1664	-0.2620	154.9683	29.1138	58.6548
-1.0021	-0.1500	-0.1699	146.5454	19.8364	60.7300
-1.0358	-0.1165	-0.1005	141.8457	9.7046	61.8896
-1.0537	-0.0883	-0.0674	140.0146	1.8311	62.1338
-1.0366	-0.0708	-0.0376	139.3433	-1.8311	62.0117
-1.0139	-0.0421	-0.0054	139.3433	-1.5259	60.4248
-1.0134	-0.0366	0.0029	140.9912	0.7935	58.0444
-0.9899	-0.0454	0.0214	142.7612	4.6387	55.9692
-0.9902	-0.0411	0.0114	144.8364	8.2397	53.2837
-0.9985	-0.0582	-0.0122	147.8271	11.7798	49.6216
-0.9802	-0.0695	-0.0051	151.2451	16.0522	47.0581
-0.9678	-0.0743	0.0173	155.5176	20.0195	45.5322
-0.9531	-0.0681	0.0383	161.5601	24.6582	43.8843
-0.9344	-0.0676	0.0378	168.9453	28.3813	42.5415
-0.9230	-0.0780	0.0242	175.9644	29.3579	41.6870
-0.9027	-0.0967	-0.0029	180.5420	27.9541	39.7949
-0.8779	-0.1256	-0.0461	181.9458	25.1465	36.6211
-0.8630	-0.1499	-0.0715	179.6875	21.3623	32.5928
-0.8486	-0.1643	-0.0952	174.6216	14.8926	28.8696
-0.8752	-0.1731	-0.1460	167.9687	7.6904	25.8179
-0.9181	-0.1842	-0.1436	162.1094	1.7700	24.2920
-0.9424	-0.1838	-0.1279	158.0200	-0.7935	25.8789
-0.9965	-0.1710	-0.1227	157.2266	-0.3052	28.0151
-1.0121	-0.1783	-0.1309	158.8745	3.1128	31.0669
-0.9778	-0.1936	-0.1400	160.0952	10.0708	34.7900
-0.9360	-0.2076	-0.1698	159.3018	19.0430	37.1094
-0.9087	-0.2203	-0.2065	154.6631	25.6348	35.8276
-0.8694	-0.2426	-0.2151	147.8271	27.0386	31.4331
-0.8353	-0.2626	-0.2166	140.6250	21.9116	25.5737
-0.8276	-0.2654	-0.2264	133.3618	12.3901	19.1650
-0.8392	-0.2563	-0.2220	127.8687	1.5869	13.0615
-0.8708	-0.2450	-0.2177	124.4507	-8.8501	8.7280
-0.9060	-0.2349	-0.2173	123.7793	-17.0898	7.0190
-0.9475	-0.2274	-0.2133	125.1831	-20.3247	7.0801
-0.9753	-0.2252	-0.2175	127.7466	-19.0430	9.2163
-0.9535	-0.2236	-0.2454	130.0049	-13.0005	12.6343
-0.9113	-0.2079	-0.2839	132.3242	-5.0049	15.6860
-0.8828	-0.1903	-0.2861	135.9863	1.6479	17.7002
-0.8876	-0.1882	-0.3119	143.3105	4.6997	18.6768
-0.8560	-0.2776	-0.5272	149.7803	7.8735	18.4326
-0.8350	-0.5229	-0.9285	136.4746	11.7187	15.0757
-0.9705	-0.8936	-1.3048	75.7446	32.9590	6.9580
-1.0265	-1.0344	-1.3445	-42.3584	91.9189	-2.6245
-0.8590	-0.8467	-1.2103	-171.6309	161.9873	-20.0195
-0.6901	-0.5159	-1.2540	-274.7803	192.8711	-44.7388
-0.6119	-0.3440	-1.6256	-371.3989	170.4712	-66.3452
-0.6389	-0.3315	-1.8137	-482.9102	124.2065	-85.9375
-0.4547	-0.0977	-1.8954	-595.0317	90.8203	-108.2153
-0.2878	0.2300	-1.9625	-686.9507	61.4624	-135.5591
-0.2264	0.4320	-1.8170	-749.6948	31.1890	-168.9453
-0.3416	0.6548	-1.5280	-782.0435	16.7847	-179.3823
-0.6631	0.6216	-1.1846	-792.4805	23.0103	-146.7896
-0.6160	0.6959	-0.8019	-796.1426	3.1128	-141.3574
-0.3552	1.0836	-0.3513	-784.8511	-28.0151	-145.5078
-0.4772	1.4843	0.0709	-728.2104	-86.4868	-137.5732
-1.1267	1.8939	0.7275	-653.5645	-155.2734	-126.4648
-2.0406	2.2499	1.6677	-547.7905	-189.8804	-108.7646
-2.5504	2.2715	2.1317	-390.3809	-170.2881	-73.7915
-2.2894	2.0673	1.9341	-226.3794	-103.5156	-13.9160
-1.6642	1.8571	1.6178	-89.4775	-33.6304	48.4619
-1.1675	1.6884	1.2609	18.6768	10.0098	100.5249
-0.8905	1.4972	0.9463	104.2480	15.9912	144.9585
-0.7861	1.1566	0.5778	172.4854	0.6714	175.7812
-0.8120	0.8148	0.2488	219.7266	-15.6250	183.1665
-0.8982	0.5742	-0.0255	243.4692	-29.8462	173.6450
-0.9573	0.3940	-0.2217	250.4272	-36.7432	157.4097
-1.0146	0.2476	-0.3124	248.2910	-27.1606	139.5874
-1.0524	0.0732	-0.4509	243.1030	-6.2866	117.2485
-1.2479	0.2013	-0.1848	226.4404	16.7847	96.3745
-1.1820	0.0330	-0.3840	236.6333	29.9072	80.2612
-1.0303	-0.0806	-0.4487	236.6333	35.9497	77.0874
-0.9741	-0.0856	-0.3928	224.3652	46.3257	73.1812
-0.9951	-0.1189	-0.3295	211.6699	46.7529	69.0918
-0.9988	-0.1366	-0.2687	199.7681	40.0391	67.9321
-0.9747	-0.1238	-0.2344	189.0869	30.0293	69.4580
-0.9709	-0.1017	-0.1976	181.8237	18.1274	70.7397
-0.9825	-0.0917	-0.1593	178.0396	7.8125	69.7632
-0.9945	-0.0712	-0.0962	177.9175	0.2441	68.1152
-1.0209	-0.0549	-0.0669	182.1899	-5.3101	66.5894
-1.0194	-0.0344	-0.0647	187.8662	-7.2021	65.1855
-1.0336	-0.0220	-0.0605	194.5190	-5.1270	62.2559
-1.0500	-0.0366	-0.0485	202.6367	1.4648	58.9600
-1.0201	-0.0527	-0.0286	210.7544	13.4888	56.0913
-0.9423	-0.0750	-0.0273	218.0786	26.6724	53.1006
-0.8615	-0.1011	-0.0631	222.0459	34.6680	49.6826
-0.8175	-0.1173	-0.1041	221.7407	37.2925	44.3115
-0.8151	-0.1349	-0.1464	218.5669	35.5835	38.0859
-0.8308	-0.1493	-0.1570	211.9751	30.7617	33.1421
-0.8724	-0.1459	-0.1792	204.4067	25.4517	28.3813
-0.9379	-0.1376	-0.1752	197.0825	22.8271	23.1934
-1.0046	-0.1278	-0.1595	190.6128	25.4517	18.4326
-1.0184	-0.1267	-0.1744	185.3027	33.3862	14.5874
-0.9580	-0.1449	-0.1926	178.6499	42.2974	12.6953
-0.9019	-0.1708	-0.1876	170.8374	46.2646	12.2070
-0.8879	-0.1821	-0.1787	162.2925	45.2271	12.9395
-0.8887	-0.1927	-0.1805	154.2969	39.2456	14.8926
-0.8655	-0.2242	-0.1807	145.9351	29.1138	18.4326
-0.8521	-0.2415	-0.1914	136.9629	17.2729	21.4844
-0.8469	-0.2322	-0.2225	126.6479	5.7983	22.2778
-0.8694	-0.2145	-0.2195	116.6992	-5.3711	20.3247
-0.9108	-0.2062	-0.1919	110.4126	-14.4653	17.0288
-0.9425	-0.2064	-0.1995	106.8115	-20.7520	13.9771
-0.9719	-0.1935	-0.2013	104.6753	-21.5454	11.0474
-0.9935	-0.1923	-0.1741	104.9194	-18.1274	9.2163
-0.9874	-0.2051	-0.1630	106.7505	-12.8784	10.0098
-0.9698	-0.2197	-0.1912	107.4829	-5.9204	11.6577
-0.9427	-0.2329	-0.2069	106.8726	0.1831	13.6719
-0.9104	-0.2319	-0.2145	104.7363	3.1128	16.0522
-0.8796	-0.2368	-0.2253	103.0884	4.0283	17.3340
-0.8649	-0.2418	-0.2383	100.0977	1.8311	17.4561
-0.8713	-0.2324	-0.2349	98.4497	-2.8687	16.2964
-0.8750	-0.2266	-0.2142	99.4873	-8.3618	13.9771
-0.8778	-0.2274	-0.2185	102.2949	-13.1226	13.0615
-0.9021	-0.2234	-0.2349	106.3232	-15.7471	10.7422
-0.9181	-0.2123	-0.2496	111.6943	-14.9536	8.3008
-0.9178	-0.2024	-0.2865	118.5913	-11.6577	5.7983
-0.8953	-0.1924	-0.3218	124.7559	-6.1035	3.6621
-0.8077	-0.2102	-0.3918	130.7373	-0.1831	1.6479
-0.6931	-0.3383	-0.6719	130.0049	-0.8545	1.3428
-0.6755	-0.6860	-1.1565	101.9287	-6.4087	-0.7324
-0.8214	-1.1008	-1.5271	11.9629	-0.5493	-4.1504
-0.9471	-1.1953	-1.6106	-136.2305	37.5977	-2.5635
-0.9641	-0.8833	-1.4497	-294.6167	88.3179	-12.1460
-0.9232	-0.4115	-1.6140	-429.3213	112.1826	-34.6069
-0.8826	-0.0363	-1.8746	-556.6406	93.1396	-49.6826
-0.7217	0.2239	-2.0800	-675.4150	64.0869	-62.9883
-0.3975	0.4923	-2.2001	-772.5830	45.8984	-81.3599
0.0190	0.7236	-2.1382	-843.3838	19.4702	-103.5767
0.1715	0.9722	-1.7809	-896.9116	-27.5879	-115.8447
-0.0222	1.0922	-1.3762	-927.7954	-76.1719	-97.4731
-0.3254	1.1799	-0.7085	-922.9126	-167.4805	-100.6470
-0.5519	1.4518	-0.1768	-882.2021	-263.1226	-121.6431
-1.2020	1.8660	0.4850	-793.3960	-321.5332	-142.5171
-2.2389	1.9720	1.3387	-652.0996	-341.9800	-155.5176
-2.8457	2.0400	2.0054	-484.3140	-289.7949	-143.9819
-2.7743	2.0330	2.0403	-290.5273	-181.0303	-111.5112
-2.1718	1.8187	1.6516	-105.8960	-54.3213	-59.2041
-1.5992	1.5918	1.2280	34.9731	44.2505	0.4272
-1.2294	1.3811	0.9285	134.2773	95.6421	55.0537
-1.0391	1.0756	0.5646	209.7168	100.5249	94.1162
-0.9967	0.7557	0.1484	261.6577	77.0264	108.2153
-1.0507	0.4819	-0.2357	288.5742	47.4243	104.9194
-1.1433	0.2653	-0.4932	292.3584	32.6538	95.8862
-1.1351	0.0865	-0.6262	277.9541	37.4146	83.4961
-1.1357	-0.0497	-0.6698	254.9438	47.4854	72.6929
-1.1564	-0.1577	-0.6650	227.4780	51.9409	65.6128
-1.3716	-0.0345	-0.3920	192.6880	52.6733	60.4858
-1.1061	-0.2386	-0.6108	179.9927	49.1943	53.5889
-0.9634	-0.3534	-0.6083	161.4990	24.1699	64.2090
-1.0341	-0.2748	-0.4474	136.4136	8.6060	72.3267
-1.1654	-0.2251	-0.3635	123.7183	-5.1270	80.0171
-1.1514	-0.2350	-0.3413	120.5444	-14.5874	89.5996
-1.0004	-0.2373	-0.2776	118.0420	-20.4468	95.7642
-0.9220	-0.2258	-0.2059	117.8589	-26.0010	97.2900
-0.9379	-0.1923	-0.1292	121.2769	-35.9497	94.7266
-0.9680	-0.1583	-0.0685	128.1738	-40.5884	90.0879
-0.9691	-0.1216	-0.0092	139.2212	-36.1938	84.4116
-0.9600	-0.0857	0.0151	153.2593	-23.8037	78.6743
-0.9553	-0.0679	-0.0079	168.4570	-7.6294	72.2656
-0.9275	-0.0686	-0.0471	182.6782	10.0098	64.3921
-0.9082	-0.0754	-0.0836	194.7021	26.7334	55.4199
-0.8810	-0.1034	-0.1270	204.5898	39.6729	46.5088
-0.8326	-0.1229	-0.1735	211.2427	49.9878	38.6353
-0.8340	-0.1493	-0.2238	215.0269	56.3354	32.3486
-0.8624	-0.1622	-0.2396	215.8203	59.3872	27.8931
-0.8960	-0.1683	-0.2313	215.5151	60.5469	25.2686
-0.9197	-0.1654	-0.2423	215.2710	61.8896	22.7051
-0.9387	-0.1619	-0.2505	214.1724	65.5518	20.2026
-0.9100	-0.1870	-0.2572	210.5103	67.3828	18.7378
-0.8722	-0.2032	-0.2886	203.9795	65.6128	17.0898
-0.8193	-0.2339	-0.3221	192.0776	57.6172	15.9912
-0.7743	-0.2510	-0.3267	175.9644	43.3960	15.5029
-0.7708	-0.2522	-0.3403	159.3628	22.8271	15.6860
-0.8105	-0.2621	-0.3126	143.2495	-1.6479	18.1274
-0.8859	-0.2440	-0.2952	130.2490	-25.5127	22.0337
-0.9429	-0.2299	-0.3115	122.1924	-42.7856	27.4048
-0.9746	-0.2257	-0.2959	116.3330	-51.6968	33.0200
-1.0011	-0.2175	-0.2863	111.9385	-53.4058	38.0859
-1.0417	-0.1980	-0.2871	109.9854	-48.0957	40.3442
-1.0665	-0.1824	-0.2778	110.5347	-34.8511	40.6494
-1.0708	-0.1698	-0.2759	113.4644	-15.7471	38.5132
-1.0643	-0.1633	-0.2825	119.2627	7.8735	33.9355
-1.0240	-0.1693	-0.2906	126.7700	33.8135	29.5410
-0.9872	-0.1868	-0.3022	134.6436	56.3354	26.2451
-0.9458	-0.2177	-0.3030	141.7236	72.9370	24.4751
-0.8990	-0.2377	-0.2905	145.0195	84.7168	25.2075
-0.8530	-0.2471	-0.2888	145.6909	90.3931	28.2593
-0.8026	-0.2562	-0.2903	144.8975	89.0503	32.3486
-0.7712	-0.2573	-0.2866	141.8457	81.0547	35.2173
-0.7859	-0.2549	-0.2578	138.6108	68.0542	35.2783
-0.8204	-0.2614	-0.2539	137.0239	51.7578	33.6914
-0.8256	-0.2928	-0.3208	135.4370	36.1938	30.5786
-0.7606	-0.3755	-0.5483	128.9062	22.8882	26.1230
-0.7719	-0.6537	-1.0193	102.5391	11.6577	17.9443
-0.8958	-1.0826	-1.3596	24.9634	22.2778	5.7373
-0.9968	-1.1786	-1.2974	-108.1543	70.8008	0.2441
-0.9055	-0.9324	-1.2607	-240.4175	131.2866	-9.0332
-0.7897	-0.6482	-1.5317	-360.5347	155.0293	-29.1748
-0.7611	-0.4198	-1.8165	-496.2158	135.3149	-50.6592
-0.6591	-0.0793	-2.1038	-635.0098	96.4355	-68.4814
-0.4198	0.3485	-2.3418	-749.0234	59.3872	-92.7734
-0.0024	0.6918	-2.4309	-824.5239	18.8599	-127.1973
0.1578	1.0162	-2.1324	-872.6196	-36.9873	-160.7666
-0.1630	1.0702	-1.6343	-888.7939	-71.1060	-157.7759
-0.7026	0.9572	-1.0338	-871.7041	-121.6431	-162.5366
-0.9993	1.2378	-0.2274	-837.8296	-167.4805	-187.3169
-1.1356	1.6140	0.4462	-770.6909	-187.0117	-179.0161
-1.4095	1.8145	0.9274	-663.6353	-207.3975	-160.2173
-1.9181	2.0212	1.4995	-545.8374	-217.3462	-130.4932
-2.4193	2.1584	1.8527	-400.0854	-192.5049	-93.5669
-2.3856	2.1372	1.9415	-243.1641	-122.8027	-40.4053
-1.9504	1.8792	1.6713	-97.2900	-42.4194	20.8740
-1.4719	1.5844	1.2769	20.4468	20.3247	78.3081
-1.0693	1.3307	0.8831	106.8115	49.9268	124.3896
-0.7937	1.0066	0.5111	166.9312	51.6968	154.4189
-0.7043	0.6326	0.1323	205.3223	35.9497	162.2314
-0.7203	0.3406	-0.1656	218.3228	15.3198	154.9072
-0.7997	0.1840	-0.3311	211.5479	3.7231	139.3433
-0.8843	0.0409	-0.4330	197.8760	5.6763	118.1641
-1.0748	0.0865	-0.2003	174.8047	17.6392	94.4214
-1.0349	-0.0923	-0.4592	175.0488	23.0713	69.0308
-0.9890	-0.2576	-0.5513	171.5698	18.9209	57.4951
-0.9132	-0.2815	-0.5243	153.9917	28.0762	49.0112
-0.9447	-0.2596	-0.4352	134.3384	30.4565	43.8232
-1.0442	-0.2406	-0.3640	120.4224	24.9023	42.7246
-1.0629	-0.2084	-0.2953	110.7178	19.2871	46.2036
-1.0359	-0.1812	-0.2537	103.1494	13.6719	49.5605
-1.0182	-0.1552	-0.1909	98.3887	9.4604	51.4526
-1.0332	-0.1346	-0.1144	97.9004	6.5308	52.7954
-1.0579	-0.1183	-0.0536	101.8066	4.2725	53.7109
-1.0647	-0.0978	-0.0287	108.1543	4.3945	54.5044
-1.0231	-0.0770	-0.0305	115.2954	7.4463	54.5654
-0.9832	-0.0598	-0.0450	121.3379	12.9395	52.7954
-0.9802	-0.0553	-0.0461	126.2817	18.1885	48.9502
-0.9878	-0.0670	-0.0481	130.8594	22.8882	43.9453
-1.0103	-0.0736	-0.0372	135.8032	27.3438	37.4146
-1.0425	-0.0743	-0.0565	141.1133	33.8135	32.3486
-1.0208	-0.0756	-0.0699	146.7285	41.7480	30.2124
-0.9780	-0.0890	-0.0857	152.5269	48.4619	30.3345
-0.9391	-0.1041	-0.0685	158.4473	51.2085	32.3486
-0.9318	-0.1041	-0.0469	163.6353	50.5371	34.9121
-0.9271	-0.1146	-0.0441	168.5791	46.9360	36.8652
-0.9164	-0.1294	-0.0342	172.1802	41.1377	36.9263
-0.9202	-0.1320	-0.0543	174.4385	35.7666	35.0342
-0.8881	-0.1482	-0.1016	174.5605	33.4473	32.0435
-0.8412	-0.1696	-0.1118	172.7905	29.8462	28.9307
-0.8516	-0.1748	-0.1267	170.4712	24.0479	25.0244
-0.8857	-0.1862	-0.1238	168.5181	17.1509	22.3389
-0.8910	-0.2017	-0.1073	167.0532	10.5591	23.3154
-0.8838	-0.2036	-0.1101	166.4429	6.4087	25.6348
-0.9060	-0.2094	-0.1356	166.5039	4.2725	27.4048
-0.9398	-0.2239	-0.1685	164.4897	4.1504	28.4424
-0.9639	-0.2197	-0.1969	159.6069	8.0566	28.4424
-0.9712	-0.1993	-0.2358	154.3579	14.7705	26.9165
-0.9110	-0.2117	-0.2327	149.9634	20.9351	26.0010
-0.8606	-0.2316	-0.2114	145.5688	21.6675	25.8789
-0.8665	-0.2430	-0.2279	141.8457	17.7002	25.3296
-0.8739	-0.2423	-0.2206	139.7095	11.7798	25.5737
-0.8516	-0.2560	-0.1881	138.7939	2.3804	26.6113
-0.8551	-0.2625	-0.1841	137.8784	-9.8877	26.6113
-0.8828	-0.2664	-0.1842	138.4888	-21.4233	24.5361
-0.9056	-0.2753	-0.1898	138.3667	-30.5786	21.3623
-0.9412	-0.2703	-0.2170	136.5967	-34.8511	18.0664
-0.9865	-0.2473	-0.2467	135.4370	-32.1655	14.4653
-1.0380	-0.2249	-0.2638	135.9253	-23.4985	12.5732
-1.0715	-0.2086	-0.2736	138.4277	-8.3618	13.0615
-1.0624	-0.1921	-0.2722	143.7378	11.9629	16.2354
-1.0222	-0.1912	-0.2795	151.3062	33.6914	21.4844
-0.9351	-0.2352	-0.3302	157.5317	50.5981	26.8555
-0.7379	-0.3369	-0.5060	155.8838	57.8003	30.2734
-0.5670	-0.5868	-0.8583	131.4087	47.3022	26.6113
-0.5819	-1.0638	-1.2499	59.9365	27.4658	15.5029
-0.7427	-1.3242	-1.3191	-75.9277	32.2876	4.9438
-0.9176	-1.0461	-1.0948	-221.6797	64.2700	-13.1836
-0.9436	-0.5573	-1.3636	-335.9375	88.0127	-46.5088
-0.8835	-0.3118	-1.8275	-450.3784	81.3599	-79.1016
-0.7014	-0.1328	-2.1051	-577.6978	65.5518	-109.4971
-0.4135	0.2051	-2.2987	-695.9229	60.5469	-145.6909
-0.0304	0.5790	-2.2654	-779.2358	47.4854	-185.0586
0.1636	0.9131	-1.9758	-822.8149	15.4419	-213.1958
-0.0254	0.8827	-1.5103	-831.6650	-11.0474	-199.8901
-0.4489	0.7645	-1.0283	-824.8291	-62.3779	-192.1997
-0.5310	1.0289	-0.8125	-819.2749	-122.8638	-202.5757
-0.5543	1.5764	-0.3516	-800.4150	-172.4854	-204.9561
-0.9962	2.0449	0.3281	-740.7227	-214.0503	-201.5381
-1.8704	2.2893	1.1444	-640.0146	-230.5298	-188.5376
-2.6238	2.3705	1.8767	-501.5259	-202.2095	-156.9824
-2.7046	2.2251	1.9586	-329.8340	-128.6621	-107.1167
-2.1508	2.0050	1.6815	-163.6353	-40.1611	-41.9312
-1.5583	1.7904	1.3707	-30.3955	24.9634	24.9023
-1.2018	1.5280	1.1058	72.8760	49.9268	88.1958
-1.0204	1.1877	0.8002	157.6538	45.5322	140.2588
-0.8839	0.8389	0.4202	224.4263	32.5317	170.3491
-0.8173	0.5859	0.0518	265.9302	16.7236	178.3447
-0.8442	0.3744	-0.2880	287.2314	0.6714	171.9971
-0.9122	0.1904	-0.4908	291.1987	-7.3242	158.6304
-0.9399	0.0457	-0.5697	282.4707	-1.5869	141.1743
-1.1727	0.1024	-0.2858	260.7422	13.9771	121.2158
-1.1804	-0.0588	-0.5253	255.7373	26.1841	100.4639
-1.0723	-0.1669	-0.5687	250.2441	29.8462	98.0225
-1.0248	-0.1444	-0.5375	233.2153	40.7104	99.4263
-0.9653	-0.1643	-0.4753	216.0034	44.7998	101.4404
-0.9126	-0.1455	-0.3678	199.4019	41.1377	101.8066
-0.8619	-0.1310	-0.3176	187.1338	30.5176	101.8677
-0.8442	-0.1206	-0.2688	176.2085	16.7236	101.1353
-0.9231	-0.1051	-0.2089	170.7153	3.4180	96.9849
-1.0511	-0.1145	-0.1512	171.6309	-6.9580	91.8579
-1.0938	-0.1036	-0.1133	178.2837	-10.5591	88.0737
-1.0590	-0.0883	-0.0875	188.2324	-5.6763	85.0220
-0.9973	-0.0912	-0.0865	198.2422	3.1128	80.6274
-0.9763	-0.1041	-0.1124	206.5430	12.3901	75.1343
-0.9543	-0.1222	-0.1509	211.9751	22.0337	68.2373
-0.9146	-0.1292	-0.2117	212.5244	32.2266	59.4482
-0.8851	-0.1364	-0.2570	208.8013	41.8701	49.7437
-0.8593	-0.1522	-0.2721	202.6367	48.6450	40.0391
-0.8521	-0.1746	-0.2794	196.0449	50.9644	31.7383
-0.8673	-0.1792	-0.3077	187.9272	51.2695	24.1699
-0.8972	-0.1841	-0.2855	180.5420	50.2930	18.9209
-0.9044	-0.2020	-0.2539	173.6450	47.9736	16.6626
-0.8949	-0.2291	-0.2334	165.7104	44.2505	16.2964
-0.9061	-0.2312	-0.2245	154.6631	38.7573	16.0522
-0.9344	-0.2266	-0.2430	141.7847	33.4473	15.9912
-0.9407	-0.2297	-0.2439	127.8687	30.4565	15.5029
-0.9453	-0.2273	-0.2385	113.7695	29.4189	14.9536
-0.9749	-0.2239	-0.2314	100.0366	28.7476	14.0381
-0.9695	-0.2229	-0.2319	88.2568	27.8320	14.0381
-0.9564	-0.2091	-0.2266	78.7964	26.6113	13.9160
-0.9790	-0.1854	-0.2269	72.2046	25.0854	13.6108
-0.9701	-0.1787	-0.2106	69.3970	21.9727	14.6484
-0.9338	-0.1914	-0.1620	69.7021	18.2495	16.4795
-0.9235	-0.2098	-0.1105	72.0825	14.2212	19.2871
-0.9250	-0.2294	-0.0881	75.1343	9.2163	21.6675
-0.9241	-0.2531	-0.0811	76.2939	4.8828	22.6440
-0.9083	-0.2611	-0.0886	74.7681	1.6479	20.6299
-0.8871	-0.2596	-0.1143	70.8008	-1.0376	16.6016
-0.8810	-0.2518	-0.1311	65.1855	-4.7607	10.6812
-0.8916	-0.2347	-0.1436	59.9976	-8.6060	4.5166
-0.9315	-0.2070	-0.1447	57.4341	-10.6201	0.0000
-0.9872	-0.1766	-0.1396	60.0586	-11.2305	-1.8311
-1.0193	-0.1759	-0.1495	67.6880	-9.7656	0.6714
-1.0211	-0.1842	-0.1512	76.0498	-3.7842	5.6152
-1.0067	-0.1970	-0.1550	84.2285	6.6528	11.1694
-0.9530	-0.2246	-0.1494	89.9658	17.8833	14.9536
-0.8850	-0.2428	-0.1429	91.1865	25.1465	16.4185
-0.8496	-0.2643	-0.1382	91.6138	26.6724	13.5498
-0.8218	-0.2753	-0.1390	90.6982	22.0337	8.8501
-0.8221	-0.2670	-0.1456	89.7217	12.4512	3.6621
-0.8616	-0.2418	-0.1387	90.9424	1.5259	-1.6479
-0.9004	-0.2217	-0.1633	95.8252	-7.4463	-5.1270
-0.8806	-0.2770	-0.3838	100.5249	-13.3667	-6.5308
-0.8473	-0.4858	-0.7588	86.1206	-16.8457	-10.1318
-0.9214	-0.8075	-1.1062	26.4282	-8.7891	-15.8081
-0.9899	-0.9320	-1.1282	-81.1768	29.5410	-16.1133
-0.9590	-0.7306	-0.9783	-194.7632	86.3647	-19.9585
-0.8472	-0.4104	-1.0472	-284.1187	122.0093	-37.5977
-0.7822	-0.2423	-1.3135	-362.3047	118.7744	-63.1104
-0.7489	-0.1632	-1.4557	-442.8101	89.5996	-87.7075
-0.5930	-0.0370	-1.5551	-516.6626	59.6313	-111.4502
-0.4520	0.1052	-1.5668	-575.8667	34.0576	-133.8501
-0.4335	0.3142	-1.4410	-617.2485	11.7187	-151.9775
-0.6079	0.4739	-1.1843	-638.0615	4.0283	-145.6299
-0.8132	0.4237	-0.9633	-650.2075	-4.5776	-123.1079
-0.7781	0.4957	-0.6249	-656.0669	-28.4424	-120.4834
-0.8132	0.7551	-0.0822	-642.8223	-45.0439	-107.3608
-0.9761	1.0222	0.5359	-597.9004	-64.8804	-82.0313
-1.2922	1.2369	1.3262	-509.2773	-102.4170	-59.5703
-1.6561	1.3167	1.8583	-381.7139	-141.4795	-30.6396
-1.8690	1.1901	1.6902	-234.6802	-152.8320	-0.4272
-1.7891	1.0710	1.3431	-112.7319	-117.6147	29.3579
-1.4766	0.9758	1.1611	-26.2451	-60.7300	60.0586
-1.1163	0.8838	0.9729	40.8325	-13.4277	87.4634
-0.8724	0.7682	0.6969	97.1069	5.1880	103.5767
-0.7947	0.6107	0.4115	139.7095	1.4038	106.0181
-0.8771	0.4554	0.1962	166.3208	-8.7891	94.1162
-1.0073	0.3398	0.0410	178.3447	-12.8174	74.9512
-1.1101	0.2483	-0.0713	182.2510	-5.1270	54.0771
-1.1825	0.1641	-0.1406	181.8237	11.6577	38.6963
-1.1495	0.0723	-0.2061	178.5889	33.5083	31.6162
-1.0922	0.0077	-0.2196	173.5840	50.4761	29.3579
-1.1038	-0.0421	-0.2120	169.7998	57.9834	32.6538
-1.1030	-0.0912	-0.2317	167.7856	56.5186	40.9546
-1.0331	-0.1052	-0.2029	165.4053	48.7061	52.0020
-0.9912	-0.1006	-0.1494	163.7573	38.5132	61.9507
-1.0020	-0.1022	-0.1067	163.7573	25.8179	69.8242
-1.0223	-0.1006	-0.0820	164.5508	12.2070	74.5239
-1.0375	-0.0898	-0.0573	164.7949	0.5493	75.3174
-1.0852	-0.0856	-0.0575	165.9546	-7.0190	72.9980
-1.0940	-0.0878	-0.0619	167.1753	-10.1929	69.6411
-1.0872	-0.0787	-0.0581	168.2129	-8.4839	65.5518
-1.1073	-0.0753	-0.0597	171.3257	-3.6621	60.7910
-1.0862	-0.0922	-0.0647	176.7578	2.3193	57.2510
-1.0338	-0.1079	-0.0602	183.1055	9.2163	54.7485
-0.9862	-0.1229	-0.0724	189.6362	15.4419	53.0396
-0.9469	-0.1366	-0.0945	194.7021	19.8364	51.5747
-0.9208	-0.1460	-0.1072	197.5708	20.9351	49.6216
-0.9226	-0.1536	-0.1195	197.6929	21.3013	46.6919
-0.9283	-0.1635	-0.1398	196.1060	22.6440	43.3960
-0.9270	-0.1737	-0.1626	192.4438	26.1230	39.7949
-0.9316	-0.1967	-0.1598	187.6221	30.6396	35.2783
-0.9447	-0.2007	-0.1702	182.0068	35.6445	30.8838
-0.9305	-0.2122	-0.1923	175.5981	40.5273	28.1372
-0.8813	-0.2295	-0.2107	167.0532	42.7856	25.5127
-0.8507	-0.2346	-0.2145	157.2876	41.0767	22.7661
-0.8429	-0.2311	-0.2151	147.6440	34.8511	20.7520
-0.8330	-0.2338	-0.2056	140.0757	24.2920	19.8364
-0.8273	-0.2375	-0.1981	134.1553	10.6812	19.8364
-0.8337	-0.2395	-0.2003	128.7231	-3.3569	20.9351
-0.8699	-0.2223	-0.2024	124.6338	-16.6626	21.6064
-0.8975	-0.2057	-0.1865	124.0234	-27.2217	22.0947
-0.9098	-0.2111	-0.1877	125.1221	-32.4097	22.5220
-0.9301	-0.2114	-0.2075	126.3428	-33.1421	21.1182
-0.9703	-0.1936	-0.2217	128.3569	-28.8696	18.7378
-0.9836	-0.1952	-0.2339	131.8359	-21.7285	18.6768
-0.9716	-0.2124	-0.2531	135.0708	-11.7798	19.5313
-0.9468	-0.2184	-0.2776	137.0850	-0.3052	21.0571
-0.9208	-0.2131	-0.3021	138.6719	12.0850	22.7051
-0.8958	-0.2252	-0.3063	139.6484	21.5454	24.3530
-0.8668	-0.2462	-0.3124	138.7329	27.5879	24.8413
-0.8281	-0.2708	-0.3340	135.6812	29.4800	24.4141
-0.8044	-0.2786	-0.3589	129.3335	28.1372	22.1558
-0.7972	-0.2887	-0.3778	121.7041	23.3765	18.8599
-0.7959	-0.3265	-0.4303	111.3892	15.8691	14.3433
-0.7902	-0.4333	-0.5845	93.8110	9.9487	7.6294
-0.7775	-0.5901	-0.7502	59.4482	7.2632	-0.6104
-0.8165	-0.7563	-0.9185	2.0752	8.7280	-9.0942
-0.8835	-0.8140	-0.9966	-77.9419	21.6675	-15.6860
-0.9425	-0.6924	-0.9855	-166.8091	40.1611	-21.0571
-0.9175	-0.4293	-0.8945	-249.2065	53.1006	-31.4941
-0.8903	-0.1884	-0.8638	-314.6973	47.8516	-45.5322
-0.9095	-0.1761	-1.0225	-367.3096	29.0527	-59.8145
-0.9167	-0.2258	-1.1816	-427.0630	14.7095	-75.3784
-0.9219	-0.0530	-1.2592	-494.8730	15.8081	-93.0176
-0.8356	0.2008	-1.2734	-554.9316	25.7568	-109.2529
-0.6366	0.3794	-1.2676	-599.3042	31.2500	-124.0234
-0.4131	0.5490	-1.1274	-628.2349	29.9683	-132.5684
-0.4375	0.5090	-0.8994	-644.0430	21.9116	-132.5684
-0.5902	0.4965	-0.7267	-654.9072	-12.0239	-146.5454
-0.7506	0.6848	-0.3545	-652.8931	-59.0820	-153.2593
-0.9977	0.8348	0.1846	-614.1968	-92.5293	-142.2729
-1.2854	0.8497	0.7487	-548.2788	-116.4551	-114.3799
-1.5896	0.8966	1.2129	-459.8389	-144.0430	-74.7070
-1.8949	0.9877	1.5254	-345.0317	-154.3579	-32.9590
-1.9216	1.0382	1.4172	-215.6982	-131.7139	6.8359
-1.7152	1.0277	1.2202	-101.3794	-84.2896	43.9453
-1.4240	0.9845	1.0823	-13.9771	-33.5693	72.3877
-1.1101	0.9014	0.8995	55.1758	1.4038	87.1582
-0.8939	0.7434	0.6248	109.4360	13.3667	86.9751
-0.8491	0.5448	0.3326	144.6533	11.6577	74.2188
-0.9105	0.3524	0.0947	159.6069	13.4888	54.8706
-0.9470	0.1766	-0.0532	159.4238	22.8882	37.1094
-0.9225	0.0338	-0.1506	150.8789	35.8887	26.1230
-0.8571	-0.0897	-0.2140	137.3901	43.3960	23.9258
-0.8170	-0.1847	-0.2413	120.9106	40.7715	25.3906
-0.8441	-0.2244	-0.2395	105.1025	29.5410	28.7476
-0.9412	-0.2252	-0.2233	93.7500	14.1602	33.9355
-1.0302	-0.2230	-0.2083	88.1958	0.7935	39.9780
-1.0940	-0.2021	-0.1869	87.7075	-5.5542	46.2646
-1.1356	-0.1652	-0.1467	90.3931	-5.7983	51.2695
-1.1460	-0.1437	-0.0931	96.0083	-3.1738	54.5654
-1.1200	-0.1284	-0.0353	104.0649	0.9766	56.2134
-1.1007	-0.1202	0.0017	114.0137	5.7983	56.0303
-1.0962	-0.1124	0.0150	123.9014	11.1694	54.5044
-1.0743	-0.1074	0.0023	133.8501	17.8833	52.3682
-1.0859	-0.1005	0.0043	143.6157	23.8647	50.5371
-1.0909	-0.1044	-0.0013	153.8086	29.6021	49.0723
-1.0380	-0.1221	-0.0140	164.1846	36.9263	48.8892
-0.9884	-0.1332	-0.0133	173.4619	44.4336	48.9502
-0.9366	-0.1388	-0.0161	180.9082	47.7295	48.3398
-0.8972	-0.1469	-0.0371	187.5610	46.3867	45.5322
-0.8755	-0.1609	-0.0566	191.5283	41.9922	41.9922
-0.8630	-0.1700	-0.0800	191.4062	35.0952	38.3301
-0.8678	-0.1765	-0.1033	187.3169	27.8320	34.3018
-0.8796	-0.1862	-0.1228	180.0537	21.5454	30.5176
-0.8888	-0.1967	-0.1403	171.3867	16.8457	27.4048
-0.8966	-0.2109	-0.1498	162.1704	14.2822	24.9634
-0.9302	-0.2231	-0.1571	153.6255	12.6953	23.3154
-0.9730	-0.2207	-0.1508	146.2402	14.0381	21.8506
-0.9835	-0.2156	-0.1458	141.7847	20.4468	21.3013
-0.9600	-0.2306	-0.1439	139.9536	28.2593	21.4233
-0.9321	-0.2413	-0.1506	136.6577	34.4849	21.4233
-0.9388	-0.2495	-0.1624	131.7139	37.4146	19.5313
-0.9502	-0.2491	-0.1537	125.6714	40.2222	16.8457
-0.9480	-0.2386	-0.1499	119.8120	41.8701	14.4653
-0.9293	-0.2386	-0.1438	114.9902	40.8325	13.1836
-0.8755	-0.2560	-0.1436	110.9619	34.4238	13.4277
-0.8363	-0.2692	-0.1649	105.7739	22.3389	13.9771
-0.8402	-0.2771	-0.1863	99.5483	5.9204	14.1602
-0.8568	-0.2744	-0.1902	92.5293	-10.4980	14.4653
-0.8866	-0.2656	-0.1816	87.0361	-24.6582	15.0146
-0.9148	-0.2629	-0.1893	83.5571	-34.1187	15.0146
-0.9368	-0.2513	-0.2043	81.3599	-37.1704	13.2446
-0.9683	-0.2261	-0.1886	80.8716	-34.6680	9.8267
-0.9867	-0.2252	-0.1622	83.7402	-28.3813	7.0801
-0.9863	-0.2443	-0.1573	88.6230	-18.8599	5.9814
-0.9778	-0.2549	-0.1486	93.3228	-8.7891	6.0425
-0.9517	-0.2639	-0.1638	97.5952	-0.3052	7.0190
-0.9257	-0.2914	-0.1766	100.0977	4.6997	8.6060
-0.9014	-0.2937	-0.2003	99.8535	7.8125	10.1318
-0.8666	-0.2830	-0.2281	98.3276	7.8735	12.0850
-0.8436	-0.2711	-0.2610	96.1914	4.6387	13.1836
-0.8239	-0.2780	-0.2980	93.8721	1.0376	13.4277
-0.8063	-0.3344	-0.4408	88.8062	-4.4556	12.4512
-0.8665	-0.5131	-0.7546	68.2983	-10.0098	8.4839
-1.0054	-0.8059	-1.0699	12.1460	-2.7466	-1.0986
-1.1122	-0.9586	-1.1301	-88.9282	31.0669	-11.6577
-1.1558	-0.7798	-1.0867	-210.8765	84.7168	-20.2026
-1.1530	-0.5128	-1.2416	-323.6084	132.3242	-34.1187
-1.0990	-0.2430	-1.4182	-431.3354	167.5415	-53.1616
-0.7681	0.0203	-1.5895	-530.0293	183.7769	-69.4580
-0.2190	0.1989	-1.5803	-611.9995	157.7148	-85.9375
0.1724	0.2605	-1.5339	-680.2368	81.8481	-108.5205
0.1083	0.4695	-1.2542	-735.5957	-17.7002	-133.5449
-0.2804	0.8638	-0.9213	-760.4370	-102.4780	-155.1514
-0.8104	0.9685	-0.4738	-752.6855	-133.7280	-142.7612
-1.0226	0.9675	0.1195	-724.4873	-167.0532	-123.1079
-1.2610	1.3448	1.3783	-652.2217	-210.0220	-115.8447
-2.0532	1.2919	1.7054	-495.7275	-242.0044	-83.0078
-2.3667	1.3668	1.6694	-325.8057	-215.3320	-32.8979
-1.9452	1.4827	1.8428	-182.4951	-143.2495	14.8926
-1.5320	1.4166	1.8054	-50.7813	-67.0166	64.4531
-1.3145	1.2965	1.3262	67.3828	-24.2920	109.1919
-1.0717	1.0845	0.8347	152.8931	3.1738	134.9487
-0.9017	0.8539	0.4374	204.1016	26.0010	134.2773
-0.8804	0.5006	-0.0090	234.8022	32.5317	112.3657
-0.8782	0.1576	-0.3673	239.6851	32.1655	82.0313
-0.8774	-0.0900	-0.5321	222.3511	41.1377	50.0488
-0.9098	-0.2886	-0.5945	194.8242	54.6875	22.6440
-0.9568	-0.4425	-0.6001	164.1846	63.6597	7.0190
-0.9574	-0.5344	-0.5824	133.1787	63.5376	3.3569
-0.9430	-0.5552	-0.5350	104.8584	53.6499	7.3853
-1.0039	-0.5029	-0.4592	81.1157	35.3394	15.7471
-1.0623	-0.4274	-0.3981	63.1714	12.8174	26.7334
-1.0771	-0.3428	-0.3455	49.1943	-6.1035	37.0483
-1.0959	-0.2682	-0.2889	38.3301	-17.0898	43.2739
-1.1063	-0.2013	-0.1931	29.2969	-24.1699	48.5229
-1.1179	-0.1409	-0.0654	24.2310	-28.7476	53.6499
-1.1339	-0.0914	0.0339	26.5503	-29.6631	57.2510
-1.1304	-0.0608	0.1021	34.5459	-25.5737	58.5938
-1.1118	-0.0328	0.1516	46.4478	-17.5171	57.8003
-1.0773	-0.0153	0.1763	60.6689	-8.6670	55.1758
-1.0493	-0.0111	0.1792	75.6226	-0.0610	50.9644
-1.0115	-0.0186	0.1648	89.9048	9.7046	46.4478
-0.9564	-0.0344	0.1553	102.2339	20.3247	42.4194
-0.9097	-0.0603	0.1293	113.2813	29.2969	38.5742
-0.8782	-0.0807	0.1011	122.6196	34.3018	34.7900
-0.8678	-0.0923	0.0757	130.4321	35.4004	31.3721
-0.8785	-0.1033	0.0536	137.8784	34.4849	28.8086
-0.9143	-0.1108	0.0369	144.9585	33.6304	27.1606
-0.9349	-0.1151	0.0182	151.4282	34.1187	25.5127
-0.9453	-0.1187	0.0165	157.1045	34.9731	23.9868
-0.9584	-0.1282	0.0156	162.2925	35.2173	24.0479
-0.9315	-0.1382	-0.0056	167.4805	34.6069	25.5127
-0.8782	-0.1554	-0.0294	171.3867	31.5552	27.1606
-0.8584	-0.1779	-0.0448	174.8657	26.8555	28.5645
-0.8727	-0.1875	-0.0653	178.6499	20.3247	28.9307
-0.9037	-0.1879	-0.0929	181.5186	13.4888	27.4658
-0.9171	-0.1815	-0.1145	183.9600	9.8877	23.4985
-0.9270	-0.1853	-0.1244	186.3403	7.9346	17.7612
-0.9918	-0.1848	-0.1261	188.3545	8.6060	11.2305
-1.0388	-0.1764	-0.1382	191.2231	14.4653	5.9204
-1.0222	-0.1764	-0.1427	194.0308	27.0386	2.9297
-0.9919	-0.1869	-0.1713	197.3267	42.1143	0.5493
-0.9353	-0.2048	-0.2120	199.6460	54.5044	-0.2441
-0.8445	-0.2175	-0.2527	198.6694	59.9976	0.3662
-0.7876	-0.2168	-0.2645	195.3735	53.7720	1.2817
-0.7681	-0.2247	-0.2797	193.2983	37.6587	1.7700
-0.8081	-0.2228	-0.2368	191.7725	16.5405	2.1973
-0.8547	-0.2086	-0.2476	191.7725	-5.1880	0.8545
-0.9061	-0.1913	-0.2344	192.0776	-21.1182	-2.9907
-0.9640	-0.1890	-0.2257	193.3594	-31.4941	-5.6763
-1.0161	-0.2008	-0.2806	194.2749	-34.2407	-5.7373
-1.0237	-0.2238	-0.3333	191.4062	-29.4189	-3.1128
-1.0095	-0.2181	-0.3477	184.9365	-18.3105	0.5493
-0.9835	-0.1957	-0.3662	178.5889	-4.5166	4.5776
-0.9191	-0.2054	-0.4008	171.6309	7.9956	8.4229
-0.8322	-0.2931	-0.5447	159.0576	13.3057	11.1084
-0.8097	-0.5002	-0.8209	130.4932	7.6294	12.2681
-0.9755	-0.8015	-1.2087	68.3594	3.4790	10.2539
-1.1810	-0.9908	-1.3660	-41.9922	22.6440	10.3149
-1.2124	-0.8531	-1.2188	-177.5513	64.1479	12.5732
-1.1661	-0.5273	-1.1335	-294.9219	101.6846	2.1362
-1.0427	-0.2751	-1.2924	-392.9443	119.3237	-16.9067
-0.9576	-0.1606	-1.5852	-487.2437	114.0137	-33.5083
-0.7238	0.0054	-1.7886	-583.0078	98.3276	-46.8750
-0.3445	0.2450	-1.8281	-663.2690	75.2563	-61.2183
-0.0244	0.3464	-1.7634	-720.6421	30.2124	-83.2520
-0.0668	0.5662	-1.6384	-767.0898	-34.8511	-107.6660
-0.5103	0.8689	-1.2632	-789.0015	-78.9795	-116.5771
-0.9624	0.8900	-0.7979	-781.6162	-110.4736	-114.9292
-0.7511	1.0201	-0.3760	-763.9771	-134.4604	-143.8599
-0.6770	1.2318	0.5000	-716.1255	-144.6533	-163.6963
-0.9604	1.2791	0.8927	-618.9575	-180.4810	-157.4707
-1.5664	1.7670	1.3357	-509.5215	-206.7261	-131.4697
-2.1893	2.0156	1.8324	-380.5542	-198.7915	-96.3135
-2.3618	1.9778	2.0703	-228.0273	-148.9868	-42.7246
-2.0110	1.8018	1.8802	-73.7305	-83.5571	21.1792
-1.5131	1.5352	1.4158	58.7158	-21.4844	80.5054
-1.1124	1.2693	0.9242	154.6631	20.0806	125.0610
-0.8170	0.9541	0.5347	216.0034	40.5884	151.7334
-0.6580	0.6207	0.1100	252.3193	41.8701	157.0435
-0.6143	0.3319	-0.2262	263.0005	26.5503	145.3247
-0.7738	0.1125	-0.4429	255.5542	9.7046	124.5728
-0.9386	-0.0544	-0.5078	238.2202	6.2866	100.4639
-1.1444	-0.0836	-0.4791	213.8062	18.0054	74.7681
-1.0928	-0.3724	-0.6255	212.4023	22.4609	53.2837
-1.0314	-0.3748	-0.6340	191.8945	33.2642	48.3398
-1.0206	-0.3458	-0.5555	166.6260	42.7246	46.3257
-1.0225	-0.3586	-0.4962	147.2168	42.2974	47.6074
-0.9811	-0.3267	-0.4441	131.1646	36.8042	51.3306
-0.9731	-0.2876	-0.3754	117.3706	28.9917	52.3682
-0.9872	-0.2601	-0.3080	106.2622	18.2495	51.5137
-0.9998	-0.2292	-0.2457	99.5483	9.3384	49.3774
-1.0175	-0.2097	-0.1934	97.2290	1.8921	46.5088
-1.0336	-0.1946	-0.1476	97.8394	-2.3804	43.4570
-1.0731	-0.1720	-0.1115	100.4639	-3.8452	42.0532
-1.0930	-0.1553	-0.0908	105.2246	-0.9766	42.6636
-1.0632	-0.1401	-0.0625	111.5112	6.4697	43.0908
-1.0386	-0.1375	-0.0411	118.4692	16.1743	42.8467
-1.0281	-0.1407	-0.0507	125.4883	25.8179	40.7715
-0.9946	-0.1342	-0.0698	130.9204	34.6680	37.0483
-0.9756	-0.1256	-0.0919	133.9111	41.9312	31.5552
-0.9601	-0.1265	-0.1042	135.0708	46.7529	25.4517
-0.9180	-0.1321	-0.0811	135.4370	49.4385	21.1182
-0.8854	-0.1494	-0.0485	137.5732	49.9268	18.8599
-0.8811	-0.1675	-0.0356	141.6626	46.0815	18.7378
-0.9286	-0.1752	-0.0359	146.5454	38.2690	19.1650
-0.9424	-0.1737	-0.0441	152.2827	31.7993	19.7144
-0.9086	-0.1659	-0.0498	157.6538	27.7100	21.0571
-0.8782	-0.1620	-0.0638	160.7056	23.4375	22.2168
-0.8945	-0.1653	-0.0876	161.0107	17.9443	21.1792
-0.9877	-0.1620	-0.1257	160.2173	13.8550	17.9443
-0.9999	-0.1564	-0.1222	156.5552	15.3198	16.4795
-0.9500	-0.1678	-0.1196	151.7944	19.8364	17.2729
-0.8904	-0.1979	-0.1410	145.5688	23.2544	16.9678
-0.8676	-0.2042	-0.1683	135.7422	24.6582	14.8926
-0.9089	-0.2012	-0.1520	126.5869	22.0947	13.0005
-0.9392	-0.1947	-0.1276	121.2769	16.8457	12.7563
-0.9384	-0.1997	-0.1136	119.3237	13.6719	13.9771
-0.9254	-0.2136	-0.1102	118.2251	13.1836	14.4043
-0.9070	-0.2231	-0.1499	115.9058	14.4653	13.1226
-0.9310	-0.2238	-0.1687	112.1826	15.9302	9.5825
-0.9691	-0.2321	-0.1600	107.2998	17.6392	5.1270
-0.9977	-0.2446	-0.1332	102.7832	22.5220	0.5493
-0.9772	-0.2415	-0.1107	98.9380	30.7007	-2.5635
-0.9543	-0.2327	-0.1200	96.4966	36.1938	-4.2114
-0.9344	-0.2329	-0.1219	94.0552	36.3159	-3.4790
-0.9314	-0.2306	-0.1135	92.5903	32.2266	-1.0376
-0.9442	-0.2277	-0.1105	93.1396	23.9258	1.6479
-0.9592	-0.2332	-0.0813	94.9707	14.7095	4.4556
-0.9592	-0.2388	-0.0737	98.2056	7.8735	7.6904
-0.9535	-0.2502	-0.0968	100.7690	3.0518	9.5825
-0.9587	-0.2579	-0.1127	101.7456	1.0376	9.7656
-0.9796	-0.2493	-0.1393	101.3184	2.0752	8.5449
-0.9977	-0.2294	-0.1489	102.9053	5.8594	7.5684
-1.0110	-0.2108	-0.1260	107.5439	11.4136	6.8970
-1.0237	-0.2010	-0.1136	114.8682	20.6299	7.2021
-1.0117	-0.1936	-0.1443	122.4976	33.0811	8.5449
-0.9977	-0.1895	-0.1744	130.4932	45.5933	9.8877
-0.9656	-0.1897	-0.2151	138.1226	55.4199	11.8408
-0.8943	-0.2246	-0.3116	143.1885	62.3779	14.8926
-0.7517	-0.3928	-0.6041	136.2915	62.0728	19.7754
-0.7416	-0.7644	-0.9553	95.5811	53.5278	23.0103
-0.8873	-1.1304	-1.2523	-0.4883	61.4014	24.9634
-0.9988	-1.1947	-1.1643	-147.4609	95.0317	24.6582
-0.9222	-0.9309	-1.1407	-294.6777	120.7275	15.2588
-0.7924	-0.5474	-1.5360	-436.2183	105.6519	-4.6387
-0.7155	-0.1350	-1.8857	-573.9136	56.5796	-30.7617
-0.6572	0.3107	-2.0629	-682.1899	7.3853	-64.1479
-0.4395	0.5988	-2.0573	-751.5869	-24.4751	-95.8862
-0.1865	0.7267	-1.6984	-796.8750	-59.3872	-110.7178
-0.2844	0.9222	-1.2443	-808.9600	-108.3984	-105.3467
-0.6842	0.8872	-0.8434	-785.5225	-138.1836	-88.3179
-0.9945	0.8326	-0.8809	-761.5967	-171.6309	-91.6748
-1.0911	1.4318	0.6904	-729.1870	-200.5615	-113.8916
-1.6183	1.7610	1.6661	-601.8677	-233.9478	-109.6191
-2.5083	1.5824	1.8140	-403.3813	-226.9897	-80.4443
-2.5299	1.5190	1.8313	-231.9336	-168.9453	-39.6729
-2.0035	1.4951	1.7542	-91.5527	-77.0874	-0.0610
-1.5231	1.3751	1.5040	22.8882	6.2866	43.1519
-1.1340	1.2441	1.1193	109.6191	57.3120	79.7729
-0.8995	1.0298	0.7308	169.1895	77.0874	100.7080
-0.7848	0.6863	0.3302	204.5288	72.6929	100.3418
-0.7451	0.3704	0.0256	214.0503	49.3164	89.7217
-0.7925	0.1870	-0.1748	202.2705	27.5879	76.4160
-0.8840	0.0804	-0.3041	179.4434	16.7236	64.4531
-0.9655	-0.0320	-0.3842	152.5879	12.8784	54.8096
-1.0195	-0.1466	-0.4266	126.0986	12.5732	46.8140
-1.0734	-0.2186	-0.4254	102.4170	12.6343	41.5039
-1.1450	-0.2271	-0.3889	84.2896	14.4043	39.3066
-1.1519	-0.2708	-0.3483	71.1670	18.7988	39.7949
-1.0956	-0.2714	-0.3046	60.1196	17.9443	38.5132
-1.0488	-0.2366	-0.2762	51.0254	15.5029	39.8560
-1.0137	-0.1973	-0.2244	44.7998	18.0054	42.9077
-1.0125	-0.1638	-0.1415	42.1143	17.3950	43.7012
-1.0242	-0.1449	-0.0559	43.2739	10.7422	43.0908
-1.0315	-0.1354	-0.0159	47.8516	2.4414	43.2739
-1.0183	-0.1304	0.0027	52.8564	-2.6245	43.3960
-1.0349	-0.1150	0.0392	57.9834	-4.0894	42.6636
-1.0701	-0.0939	0.0848	65.0024	-3.9062	42.3584
-1.0858	-0.0828	0.1300	74.5850	-0.5493	44.3726
-1.0773	-0.0715	0.1545	87.2192	5.3711	47.6074
-1.0280	-0.0786	0.1465	101.5625	13.7939	50.6592
-0.9701	-0.0892	0.1256	115.6616	22.2168	52.3682
-0.9360	-0.1062	0.0857	126.4648	29.2358	50.7202
-0.9163	-0.1218	0.0496	133.3618	34.3628	46.2646
-0.8982	-0.1315	0.0487	138.0615	38.0859	40.1001
-0.8831	-0.1411	0.0615	143.6157	40.9546	33.4473
-0.8676	-0.1509	0.0599	150.2075	41.8091	27.3438
-0.8904	-0.1592	0.0358	156.0669	40.2832	21.9116
-0.8945	-0.1705	0.0044	159.1187	38.4521	17.1509
-0.8904	-0.1812	-0.0099	158.8745	36.7432	14.2212
-0.8909	-0.2006	-0.0277	155.9448	34.3628	13.0005
-0.8905	-0.2214	-0.0640	150.5127	31.2500	13.1226
-0.8899	-0.2421	-0.0856	142.5171	27.3438	13.7329
-0.8944	-0.2570	-0.0918	133.1787	22.4609	14.4043
-0.9086	-0.2623	-0.1066	124.0845	17.8223	14.7095
-0.8967	-0.2739	-0.1266	116.2109	14.7095	14.3433
-0.8835	-0.2737	-0.1168	108.1543	10.9253	13.3057
-0.8945	-0.2677	-0.1058	102.2949	7.3853	11.6577
-0.9099	-0.2705	-0.1151	98.5107	4.5776	9.6436
-0.9188	-0.2742	-0.1106	96.5576	3.9673	7.0801
-0.9338	-0.2634	-0.1104	94.9097	4.0283	5.4932
-0.9388	-0.2605	-0.1141	94.2383	5.4321	4.9438
-0.9327	-0.2678	-0.1063	93.0176	8.4229	4.9438
-0.9358	-0.2598	-0.1146	91.4917	10.9863	5.6152
-0.9321	-0.2511	-0.1155	91.8579	12.3901	6.2256
-0.9211	-0.2607	-0.1008	93.2007	13.8550	6.9580
-0.9186	-0.2574	-0.1111	95.8862	14.4043	7.3853
-0.9259	-0.2446	-0.0912	102.3560	16.1133	5.7983
-0.9248	-0.2401	-0.0824	113.5864	22.2778	3.5400
-0.9355	-0.2362	-0.1082	126.6479	31.6772	0.2441
-0.9528	-0.2158	-0.1262	140.5640	44.4946	-3.4790
-0.9647	-0.1746	-0.0764	159.2407	60.6689	-6.7749
-0.9731	-0.1248	-0.0061	183.5327	80.1392	-8.9722
-0.9598	-0.1235	-0.0061	210.9985	101.5015	-9.2773
-0.8799	-0.1539	-0.1005	235.1685	121.0938	-4.5776
-0.6484	-0.2559	-0.2866	243.9575	130.0659	6.5308
-0.3785	-0.4329	-0.5312	226.8066	117.1875	19.7754
-0.2664	-0.7021	-0.7842	176.6968	79.5898	26.7944
-0.4155	-1.0052	-1.0110	85.1440	34.5459	22.7661
-0.7985	-1.1593	-1.1276	-44.9829	2.0752	10.0708
-1.0891	-1.0018	-1.0248	-190.9790	-9.2773	-15.8691
-1.1390	-0.5673	-1.1283	-327.5757	-11.0474	-54.8096
-1.0039	-0.2275	-1.2246	-434.6313	-18.2495	-92.7124
-0.8978	-0.0055	-1.4075	-514.9536	-22.0337	-123.5352
-0.8761	0.2222	-1.5546	-583.1909	-11.4746	-149.5361
-0.7557	0.4890	-1.5597	-641.7236	2.1362	-166.1987
-0.4305	0.7198	-1.3672	-687.3169	3.2349	-170.6543
-0.2576	0.9816	-1.1028	-713.2568	-12.3901	-165.8325
-0.4629	0.9404	-0.8667	-720.5200	-24.6582	-145.4468
-0.6184	0.9404	-0.6484	-724.9756	-66.4673	-151.7944
-0.6285	1.2640	-0.3625	-718.3838	-112.6709	-176.4526
-0.9440	1.4406	-0.0178	-684.8145	-141.2964	-187.6221
-1.3309	1.4807	0.5435	-621.7041	-153.8086	-188.7817
-1.6615	1.5715	1.0886	-528.8696	-170.1050	-167.9077
-2.1719	1.6942	1.3494	-406.4331	-174.5605	-122.0703
-2.5775	1.6476	1.5691	-268.4937	-147.2168	-60.3027
-2.4113	1.5042	1.5886	-130.9204	-95.2759	12.3291
-1.8953	1.3390	1.3539	-6.7749	-35.0952	91.3696
-1.3762	1.1895	0.9980	92.8955	11.9629	158.7524
-0.9584	1.0409	0.5917	164.4287	33.0200	204.3457
-0.6504	0.7966	0.2217	209.8389	26.0010	220.7642
-0.5781	0.5806	-0.0374	227.3560	-0.0610	209.8389
-0.7690	0.5223	0.0063	217.5903	-20.9351	182.3120
-0.8993	0.3579	-0.3182	209.8999	-27.1606	143.6768
-0.9142	0.1312	-0.5026	199.8901	-21.1792	111.3892
-0.9763	0.0905	-0.5164	173.0347	11.4136	81.9702
-1.0134	-0.0176	-0.4995	144.7754	38.3301	51.0864
-1.0184	-0.1001	-0.4849	118.4082	50.0488	29.4800
-1.0150	-0.1652	-0.4663	95.3369	54.5044	16.9678
-1.0344	-0.1826	-0.4254	73.8525	51.9409	10.4980
-1.0347	-0.1824	-0.3752	55.7861	47.5464	10.8643
-1.0061	-0.1432	-0.3230	41.4429	41.6260	15.7471
-0.9946	-0.0820	-0.2445	32.2876	34.2407	22.1558
-1.0435	-0.0410	-0.1233	29.6021	23.5596	27.9541
-1.1215	-0.0077	-0.0356	33.8135	12.9395	34.4849
-1.1921	0.0270	0.0132	42.5415	9.6436	41.1987
-1.1964	0.0504	0.0803	55.2979	14.0991	47.7295
-1.1465	0.0612	0.1234	70.0684	21.6064	53.5278
-1.0806	0.0580	0.1401	85.8154	28.3813	58.1665
-1.0233	0.0449	0.1415	101.1963	34.3628	60.7300
-1.0011	0.0233	0.1323	115.3564	37.7808	60.3638
-0.9659	0.0098	0.1000	126.8921	39.7339	58.4717
-0.9297	-0.0039	0.0697	135.9253	41.8701	54.6875
-0.9205	-0.0255	0.0420	143.1274	43.4570	50.9644
-0.9263	-0.0436	0.0162	149.3530	45.2881	48.5840
-0.9226	-0.0481	0.0175	154.8462	47.7905	47.1802
-0.9307	-0.0555	0.0117	160.8276	50.9033	46.3257
-0.9319	-0.0615	0.0227	166.2598	53.2227	46.0815
-0.9143	-0.0563	0.0251	171.4478	54.0771	45.4102
-0.8975	-0.0571	0.0364	177.8564	55.7251	42.6025
-0.8718	-0.0703	0.0519	184.6313	56.3965	38.7573
-0.8612	-0.0900	0.0614	189.8193	53.1616	34.4238
-0.8821	-0.1050	0.0371	193.1152	46.6919	29.5410
-0.8920	-0.1160	-0.0054	194.1528	40.0391	25.6348
-0.8728	-0.1107	-0.0187	192.3828	34.4849	23.8647
-0.8831	-0.1033	-0.0414	191.0400	30.1514	23.4985
-0.8916	-0.1051	-0.0558	190.8569	26.0620	23.4985
-0.9048	-0.1064	-0.0538	192.8711	21.4844	23.8647
-0.9348	-0.1218	-0.0607	196.8994	18.1885	24.0479
-0.9435	-0.1478	-0.0861	201.0498	17.3950	23.4985
-0.9108	-0.1647	-0.0872	202.6978	18.7378	22.8882
-0.8680	-0.1921	-0.1176	202.4536	18.4937	21.7896
-0.8480	-0.1973	-0.1342	200.3784	17.9443	17.8223
-0.8293	-0.1951	-0.1448	197.6929	15.0146	13.3667
-0.8373	-0.1873	-0.2170	194.2139	7.8125	10.4370
-0.8184	-0.1700	-0.2274	189.5752	-1.2207	8.4229
-0.8253	-0.1659	-0.2145	186.4624	-11.1694	7.1411
-0.8806	-0.1814	-0.2241	183.6548	-19.2871	5.9204
-0.9519	-0.1915	-0.2366	180.3589	-23.4375	4.8828
-1.0034	-0.2030	-0.2236	177.1240	-21.4844	5.1880
-1.0139	-0.2128	-0.2220	172.9126	-13.0615	7.0190
-1.0154	-0.2311	-0.2396	166.7480	-0.9155	9.2773
-1.0330	-0.2322	-0.2206	159.1797	14.5874	11.0474
-1.0385	-0.2224	-0.2078	153.6255	30.9448	12.6953
-1.0118	-0.2167	-0.2197	150.1465	45.7153	14.2212
-0.9729	-0.2173	-0.2474	148.6206	56.3354	15.0146
-0.9279	-0.2247	-0.2977	147.0947	63.9648	15.9912
-0.7841	-0.2883	-0.4536	140.9912	67.5659	17.3950
-0.5903	-0.5269	-0.7122	119.0186	56.8848	17.0288
-0.5400	-0.9144	-0.9915	62.0117	35.2783	11.7798
-0.7448	-1.2429	-1.1812	-46.5698	18.1885	5.7983
-0.9198	-1.2013	-1.0209	-188.8428	13.9771	-4.0894
-1.0018	-0.7333	-1.0792	-325.7446	6.6528	-27.6489
-1.0090	-0.2861	-1.3224	-440.0635	-17.2729	-61.1572
-0.9713	-0.0288	-1.6130	-537.3535	-44.6777	-92.7124
-0.8892	0.2313	-1.7976	-622.2534	-46.2036	-127.8687
-0.7980	0.5732	-1.7747	-688.9648	-26.5503	-157.6538
-0.6588	0.8748	-1.5714	-723.6938	-2.4414	-171.3257
-0.4277	1.0040	-1.2512	-728.0273	9.5215	-167.1143
-0.3109	0.8972	-0.8608	-721.4355	10.6201	-144.6533
-0.5294	0.8680	-0.6267	-712.1582	-2.2583	-132.7515
-0.8623	1.0768	-0.2321	-689.5752	-41.9922	-137.0239
-1.0391	1.2290	0.3555	-647.3999	-90.4541	-129.7607
-1.3735	1.3209	1.0293	-568.7866	-119.9951	-112.3657
-1.9161	1.3447	1.5316	-448.4863	-132.4463	-80.6885
-2.2289	1.2987	1.5393	-307.4951	-125.1831	-35.7666
-1.9694	1.2454	1.4619	-180.7251	-86.9141	11.0474
-1.5360	1.1195	1.3301	-75.5005	-36.4990	53.3447
-1.1956	0.9912	1.1185	8.4839	-1.1597	90.6982
-0.9550	0.8534	0.8518	73.6084	12.3291	114.4409
-0.8225	0.6842	0.5773	119.6899	6.8970	120.0562
-0.7992	0.5261	0.3628	148.0713	-7.0190	112.3047
-0.8302	0.4150	0.1901	162.7197	-19.3481	97.7173
-0.9006	0.3217	0.0538	168.7622	-21.4844	82.8247
-0.9917	0.2100	-0.0481	168.0908	-10.4370	69.4580
-1.0302	0.1202	-0.1138	162.1704	8.5449	58.4717
-0.9932	0.0592	-0.1597	152.9541	26.6113	48.8892
-0.9774	0.0199	-0.1820	143.1274	38.3911	39.7339
-1.0321	-0.0093	-0.1919	135.9863	43.9453	33.5693
-1.0656	-0.0322	-0.2013	130.4321	45.1660	31.6162
-1.0543	-0.0365	-0.1758	125.6714	45.3491	30.6396
-1.0264	-0.0330	-0.1555	122.8638	45.1050	29.3579
-1.0068	-0.0369	-0.1069	120.9717	42.1753	27.6489
-1.0042	-0.0391	-0.0618	119.6289	35.1563	26.2451
-1.0018	-0.0245	-0.0094	120.4224	27.4048	24.6582
-1.0269	-0.0143	0.0262	124.5117	20.0806	24.1699
-1.0636	-0.0217	0.0413	130.4321	13.8550	23.7427
-1.1156	-0.0089	0.0590	136.2305	10.0098	24.1089
-1.1461	0.0057	0.0629	144.3481	10.1929	27.6489
-1.0974	0.0093	0.0369	154.2358	14.6484	33.9355
-1.0505	0.0092	0.0100	164.7949	20.5688	39.0625
-1.0349	-0.0015	-0.0139	175.8423	24.3530	42.1753
-0.9924	-0.0184	-0.0110	185.5469	26.3672	43.0298
-0.9436	-0.0433	-0.0269	193.7256	27.4658	41.9312
-0.9182	-0.0681	-0.0525	199.3408	26.4893	39.0015
-0.8972	-0.0950	-0.0717	200.6226	24.1089	34.8511
-0.8733	-0.1190	-0.0721	198.0591	21.1182	31.6162
-0.8832	-0.1321	-0.0741	192.5659	17.2729	29.2358
-0.8860	-0.1415	-0.0928	185.7300	13.6719	27.3438
-0.8945	-0.1448	-0.1151	177.3071	10.0708	25.9399
-0.9375	-0.1395	-0.1521	168.2739	7.4463	25.3296
-0.9231	-0.1460	-0.1771	158.9966	6.2256	26.8555
-0.8900	-0.1577	-0.1743	150.6958	4.4556	29.5410
-0.9027	-0.1598	-0.1560	145.0806	0.9155	30.7617
-0.9338	-0.1671	-0.1328	143.3105	-2.1973	31.3110
-0.9330	-0.1802	-0.1168	144.5312	-4.0894	31.4331
-0.9031	-0.2020	-0.1342	146.4844	-6.2866	30.4565
-0.8685	-0.2046	-0.1611	146.7285	-7.9346	27.5269
-0.8461	-0.2111	-0.1584	147.2778	-11.2915	23.6206
-0.8322	-0.2208	-0.1768	147.7051	-16.7847	20.0195
-0.8394	-0.2213	-0.2141	147.2778	-21.5454	16.9678
-0.8868	-0.1975	-0.2312	147.4609	-25.2686	14.2212
-0.9265	-0.1783	-0.2677	149.6582	-26.9775	13.4277
-0.9362	-0.1597	-0.2933	152.4048	-23.1934	15.0757
-0.9296	-0.1516	-0.3021	156.9214	-14.2822	17.7002
-0.9412	-0.1360	-0.3105	160.7056	-2.5635	20.2026
-0.9543	-0.1334	-0.2883	166.9312	9.7046	21.7896
-0.9358	-0.1709	-0.2784	172.9736	21.9727	22.3389
-0.8673	-0.2422	-0.3566	174.4385	32.1655	19.8364
-0.7874	-0.3549	-0.5320	164.7949	38.5742	13.4277
-0.7412	-0.5469	-0.7968	135.5591	38.0859	4.3335
-0.7833	-0.9225	-1.2698	71.2891	36.5601	-2.6855
-0.8446	-1.2439	-1.4674	-54.5044	50.0488	-3.5400
-0.9855	-1.1421	-1.3353	-212.2803	89.1724	-5.6152
-1.0692	-0.7384	-1.4652	-353.2715	138.4277	-22.7051
-1.0159	-0.2775	-1.8114	-488.0371	168.4570	-48.4619
-0.8224	0.0211	-2.2400	-627.1973	171.3257	-78.4912
-0.4956	0.4895	-2.4415	-768.3105	167.2974	-115.7837
-0.0007	1.0206	-2.3544	-862.6099	153.0762	-158.0811
0.5702	1.1935	-2.1327	-897.5830	97.5952	-194.5801
0.7456	1.3400	-1.6335	-911.9263	26.7334	-210.8154
-0.2277	1.1648	-0.9589	-900.1465	-25.3906	-212.0972
-1.2700	1.5038	0.0034	-868.9575	-115.7227	-238.4644
-1.7137	2.2545	1.4408	-775.1465	-165.4663	-232.2388
-2.1671	2.4203	2.4340	-592.8955	-135.1318	-176.2085
-2.1061	2.3947	2.6560	-379.3335	-89.1724	-102.9053
-1.6333	2.4618	2.5146	-180.6641	-44.6777	-27.1606
-1.1743	2.3572	2.1489	-15.3809	-8.4839	37.4756
-0.7946	1.9979	1.6182	107.5439	3.1738	90.2100
-0.6311	1.5288	1.0308	190.4297	-0.3662	114.1357
-0.6475	1.1564	0.5125	234.2529	-10.8032	108.7036
-0.7206	0.8767	0.1350	243.1030	-20.1416	89.5996
-0.8735	0.6395	-0.1440	233.2764	-18.2495	66.8945
-1.0210	0.4093	-0.3783	219.4214	-4.8218	47.1802
-1.0714	0.1444	-0.5321	203.1250	11.9019	35.2783
-1.0465	-0.1229	-0.5948	181.2744	21.1792	31.7993
-0.9978	-0.2742	-0.5940	154.6021	19.5923	35.7666
-0.9956	-0.2922	-0.5560	127.6855	8.9722	46.8140
-1.0282	-0.3098	-0.4954	102.6611	-9.7656	58.3496
-1.0360	-0.2395	-0.4338	79.3457	-33.5083	64.3311
-1.0593	-0.1312	-0.3595	60.1196	-49.3774	66.8945
-1.1234	-0.0629	-0.2816	44.6167	-53.5278	67.5659
-1.1367	-0.0066	-0.1960	29.8462	-52.3071	64.6362
-1.1243	0.0518	-0.1010	16.4795	-47.0581	57.5562
-1.1326	0.1119	-0.0024	6.4697	-38.0859	48.3398
-1.1547	0.1499	0.1049	3.8452	-27.9541	39.6118
-1.1407	0.1749	0.1758	8.7280	-16.2354	33.8135
-1.1285	0.1827	0.2267	19.4702	-4.2114	31.6772
-1.1063	0.1799	0.2548	34.4849	4.8828	33.4473
-1.0680	0.1780	0.2633	52.3071	9.2163	37.3535
-1.0164	0.1727	0.2561	70.8008	11.2915	42.1143
-0.9735	0.1466	0.2196	89.9658	12.9395	47.5464
-0.9305	0.1219	0.1827	106.9336	12.2070	52.0630
-0.9066	0.1023	0.1526	120.7275	9.8877	54.6875
-0.9139	0.0892	0.1418	132.7515	7.5684	55.6030
-0.9185	0.0822	0.1447	143.7378	5.8594	55.7861
-0.9469	0.0795	0.1462	154.3579	4.5166	54.8706
-0.9717	0.0728	0.1238	165.1001	5.9814	54.0161
-0.9531	0.0674	0.1005	174.1943	10.3760	54.1382
-0.9330	0.0527	0.0868	182.1289	14.4043	54.3213
-0.9266	0.0254	0.0452	188.5376	17.4561	53.5889
-0.9050	0.0026	0.0112	192.0166	18.6768	52.3682
-0.8916	-0.0154	-0.0017	192.7490	17.4561	50.2930
-0.9076	-0.0273	-0.0223	191.9556	13.1226	47.3022
-0.9059	-0.0629	-0.0692	190.0635	8.6060	44.2505
-0.8867	-0.0898	-0.0850	186.1572	4.6997	41.4429
-0.9064	-0.0911	-0.0905	181.0913	0.9155	38.0249
-0.9603	-0.0867	-0.0868	176.6357	-2.1973	33.9355
-1.0013	-0.0950	-0.0692	174.6216	-2.8687	31.0059
-1.0182	-0.0956	-0.0538	174.9268	1.4648	29.7852
-1.0129	-0.0929	-0.0837	177.0020	8.5449	30.2734
-0.9377	-0.1072	-0.1550	179.2603	14.2822	31.6772
-0.8488	-0.1365	-0.2062	178.1006	15.1978	32.0435
-0.8224	-0.1498	-0.1748	175.9033	7.5073	31.4331
-0.8098	-0.1783	-0.1979	177.3682	-4.3945	29.2358
-0.8080	-0.1904	-0.2098	178.7109	-16.2354	26.4282
-0.8102	-0.1842	-0.2428	179.3213	-27.0996	23.9868
-0.8188	-0.1532	-0.2572	182.3120	-35.4614	21.3623
-0.8778	-0.1326	-0.2366	190.5518	-41.4429	18.0664
-0.9640	-0.1400	-0.1985	202.6367	-40.6494	15.8081
-0.9785	-0.1599	-0.2395	214.9658	-28.4424	17.2729
-0.8881	-0.2156	-0.4395	221.3135	-8.1177	20.5688
-0.7369	-0.4003	-0.8398	210.3882	10.4370	20.6299
-0.6572	-0.8528	-1.3447	155.6396	20.6299	14.1602
-0.7273	-1.3380	-1.6306	27.7710	42.6025	6.7139
-0.8026	-1.3600	-1.6556	-142.9443	101.8066	-5.6152
-0.8036	-0.9985	-1.8029	-302.8564	155.2734	-36.3770
-0.7510	-0.4971	-2.2201	-460.2661	174.0112	-81.6650
-0.6317	-0.0002	-2.4932	-619.9341	159.0576	-121.7041
-0.3403	0.4291	-2.7080	-759.0942	128.7231	-152.3437
0.0156	0.7904	-2.6788	-853.3936	104.0039	-183.1055
0.3345	1.0288	-2.4017	-898.7427	60.4858	-208.6792
0.4812	1.1282	-2.0026	-918.6401	7.0801	-209.1064
-0.0725	1.1960	-1.5809	-931.5796	-59.0210	-208.2520
-0.7836	1.8196	-0.7124	-921.2036	-149.7803	-246.9482
-1.2156	2.4974	0.2834	-854.1260	-192.1997	-249.6338
-1.5614	2.6549	1.1097	-720.7642	-191.3452	-227.7222
-2.0521	2.7565	1.6080	-573.8525	-174.3774	-193.6035
-2.3126	2.8660	1.9111	-414.9780	-125.1831	-138.6108
-2.0179	2.7621	1.9543	-250.4883	-51.0864	-73.2422
-1.4993	2.4531	1.6851	-98.4497	7.0190	-0.9766
-1.1442	2.1083	1.3027	22.9492	26.2451	67.4438
-0.9706	1.7527	0.8811	113.4033	25.1465	120.4224
-0.8674	1.3400	0.4819	174.0723	19.2871	153.0151
-0.8074	0.9927	0.1346	205.1392	7.9956	163.9404
-0.8004	0.7847	-0.1388	213.8672	-4.2725	159.3018
-0.8618	0.6086	-0.3237	211.7310	-10.5591	145.3857
-0.9429	0.3837	-0.4661	206.5430	-10.3760	127.6245
-1.0200	0.1990	-0.5642	198.6084	-4.5166	113.9526
-1.1146	-0.0670	-0.4695	184.5703	7.3853	103.5767
-1.1937	0.0104	-0.5415	161.5601	20.5688	88.9282
-0.9641	-0.1228	-0.5833	166.3208	11.4136	82.0313
-0.9393	-0.1149	-0.5878	152.8320	15.7471	85.1440
-0.9741	-0.0714	-0.4985	134.7656	21.3013	81.0547
-1.0172	-0.0237	-0.4017	119.9951	15.3809	72.1436
-1.0856	0.0055	-0.3101	109.9854	11.2305	64.3311
-1.1483	0.0135	-0.2538	104.3701	10.7422	57.8003
-1.0970	0.0304	-0.2258	99.0601	13.3667	53.9551
-1.1292	0.0764	-0.1671	94.7876	16.6016	50.9644
-1.1588	0.1072	-0.1069	94.9097	22.1558	50.9644
-1.1333	0.1407	-0.0325	98.3887	30.0903	52.7344
-1.1152	0.1549	0.0087	106.2622	37.1094	55.2368
-1.0856	0.1619	0.0470	116.8823	41.6870	58.6548
-1.0553	0.1609	0.0721	129.5166	44.6167	63.2935
-0.9999	0.1492	0.0751	143.7988	47.6074	69.2139
-0.9314	0.1185	0.0630	156.6772	46.3257	74.0967
-0.8911	0.0876	0.0402	166.3818	40.1611	75.9277
-0.8800	0.0671	0.0183	173.3398	31.7993	75.6836
-0.8706	0.0450	0.0017	178.7720	24.5972	74.1577
-0.8551	0.0143	-0.0090	183.3496	20.0195	71.5942
-0.8441	-0.0128	-0.0300	187.0117	16.5405	66.7114
-0.8737	-0.0242	-0.0435	187.7441	13.7939	60.1807
-0.9291	-0.0400	-0.0400	186.5234	13.3057	52.6733
-0.9889	-0.0397	-0.0579	184.5703	18.0664	42.6636
-1.0421	-0.0336	-0.0770	180.9692	29.1138	32.2876
-1.0391	-0.0400	-0.0740	177.4292	45.2881	24.1089
-0.9633	-0.0770	-0.0742	174.0112	59.3872	19.6533
-0.8895	-0.1223	-0.0747	170.0439	65.7349	17.6392
-0.8671	-0.1469	-0.0930	165.5884	63.9038	17.5171
-0.8580	-0.1630	-0.0923	160.8276	54.7485	19.5313
-0.8414	-0.1721	-0.0833	156.4331	42.7246	24.1699
-0.8235	-0.1803	-0.0856	152.4658	29.7852	28.3813
-0.8273	-0.1954	-0.0974	147.3999	17.3340	30.0903
-0.8595	-0.1989	-0.1099	140.1978	7.2021	29.1138
-0.9008	-0.1923	-0.1285	131.8970	0.6104	26.3672
-0.9248	-0.1863	-0.1329	122.9248	-0.9766	22.3999
-0.9336	-0.1831	-0.1259	114.9292	0.3662	18.3716
-0.9315	-0.1851	-0.1093	108.7646	2.7466	15.9912
-0.9482	-0.1876	-0.0758	105.5298	5.7373	15.6860
-0.9656	-0.1967	-0.0608	106.6284	8.1177	17.0288
-0.9535	-0.2052	-0.0687	110.2295	10.0708	19.2261
-0.9121	-0.2120	-0.0590	115.5396	10.6812	21.3013
-0.8960	-0.2134	-0.0619	121.0327	8.3618	22.7661
-0.9088	-0.2000	-0.0864	126.2207	5.0049	21.7896
-0.9116	-0.1803	-0.1003	131.5308	4.5776	17.7002
-0.8979	-0.1833	-0.1221	136.6577	4.8218	11.9629
-0.8920	-0.1973	-0.1522	140.6860	5.8594	5.5542
-0.9266	-0.1992	-0.1548	144.8364	10.4980	0.0610
-0.9701	-0.1906	-0.1521	150.6348	19.2871	-3.3569
-0.9630	-0.1875	-0.1832	158.1421	30.1514	-2.6855
-0.8505	-0.2463	-0.3682	161.9263	40.5884	1.0376
-0.6661	-0.4603	-0.6620	146.4844	43.5181	2.2583
-0.6346	-0.8906	-1.0614	87.2803	35.8276	-2.0752
-0.8987	-1.2941	-1.4634	-36.6211	43.7622	-8.6060
-1.1887	-1.2994	-1.7034	-208.3740	91.9800	-27.4658
-1.1780	-0.8380	-1.9803	-393.0054	154.7852	-64.5752
-0.9746	-0.0963	-2.4198	-579.1016	196.2891	-106.0181
-0.5739	0.5879	-2.7052	-739.7461	200.7446	-133.6060
0.1143	0.9735	-2.7268	-833.8013	171.9971	-155.0293
0.6216	0.8630	-2.4087	-879.2114	86.6089	-164.5508
0.5312	0.8767	-1.9341	-907.2876	-22.0947	-164.8560
-0.4436	0.9063	-1.3875	-900.1465	-99.7925	-153.6255
-1.4526	1.2430	-0.5127	-883.7280	-198.1812	-164.4287
-1.7620	2.0519	0.7974	-813.7207	-214.4775	-158.3252
-1.9696	2.4445	1.9240	-657.2876	-193.1152	-105.9570
-2.0967	2.5095	2.0989	-475.5249	-176.8799	-44.4946
-1.8347	2.5967	2.0002	-308.8989	-136.5967	9.1553
-1.4561	2.5740	1.8066	-169.4946	-80.1392	58.2275
-1.0723	2.2964	1.4834	-56.7627	-38.0859	100.5249
-0.8971	1.8593	1.0731	29.9072	-19.7144	126.3428
-0.8488	1.4098	0.6793	91.1865	-8.0566	128.1738
-0.8356	1.0525	0.3677	123.6572	-8.0566	116.1499
-0.8770	0.8287	0.1421	136.3525	-13.8550	96.6187
-0.9374	0.6116	-0.0581	142.3950	-13.4888	75.5615
-0.9954	0.4904	-0.0846	144.2871	-0.9155	57.9834
-1.0212	0.1652	-0.3020	154.9072	8.6060	44.5557
-1.0588	-0.0419	-0.3870	156.9824	23.0103	40.7104
-1.0411	-0.1836	-0.3898	151.7334	40.1611	39.8560
-1.0247	-0.2234	-0.3906	143.8599	43.0298	39.0015
-1.0114	-0.1864	-0.3984	135.6812	36.0718	43.1519
-1.0212	-0.1329	-0.3824	128.2349	28.6865	47.9126
-1.0500	-0.0907	-0.3436	120.1172	24.2310	50.5981
-1.0557	-0.0471	-0.2977	108.9478	21.6064	52.1851
-1.0704	-0.0040	-0.2438	95.9473	18.0054	53.4058
-1.0852	0.0270	-0.1917	81.5430	15.4419	53.4668
-1.1282	0.0580	-0.1372	67.3828	12.2070	52.2461
-1.1614	0.0822	-0.0872	56.7017	9.3994	51.5747
-1.1293	0.0914	-0.0640	50.3540	7.4463	51.7578
-1.1033	0.0927	-0.0240	46.9971	5.3101	52.3682
-1.0919	0.0950	0.0085	47.8516	4.3335	54.2603
-1.0913	0.0963	0.0411	52.9175	2.7466	57.2510
-1.0985	0.0930	0.0697	61.0352	1.4038	60.7910
-1.0714	0.0914	0.0865	71.5942	2.0752	65.4907
-1.0468	0.0864	0.0957	83.8013	4.1504	69.7632
-1.0190	0.0820	0.0956	96.3135	6.7749	73.1812
-0.9819	0.0724	0.0859	107.2998	10.3149	75.2563
-0.9412	0.0565	0.0685	116.9434	13.5498	75.6836
-0.9124	0.0433	0.0417	123.1689	16.2354	73.1812
-0.8986	0.0338	0.0190	126.8311	18.0664	67.8711
-0.9049	0.0125	0.0135	130.1880	19.2871	59.6924
-0.9574	-0.0100	0.0315	133.6060	20.6909	50.9033
-1.0150	-0.0283	0.0504	138.3057	24.7192	42.7246
-0.9952	-0.0427	0.0592	145.0806	32.4707	37.9028
-0.9384	-0.0555	0.0540	152.8931	41.1987	35.4004
-0.9188	-0.0714	0.0282	160.3394	47.2412	33.3862
-0.9303	-0.0895	0.0323	167.4194	48.2788	32.4707
-0.9205	-0.0951	0.0405	174.3774	48.4009	32.5928
-0.8850	-0.0964	0.0253	181.4575	46.2646	33.2642
-0.8746	-0.1035	-0.0181	186.4014	40.4663	32.6538
-0.8672	-0.1200	-0.0419	189.0869	33.0811	30.7617
-0.8660	-0.1270	-0.0562	189.5142	25.8789	28.2593
-0.8737	-0.1432	-0.0826	187.9883	20.2637	24.9023
-0.8805	-0.1482	-0.0984	183.9600	16.4795	21.1182
-0.9109	-0.1591	-0.0881	179.8706	14.2212	16.9678
-0.9519	-0.1624	-0.0813	176.3306	14.9536	12.8174
-0.9578	-0.1713	-0.0898	172.0581	18.9209	11.4136
-0.9485	-0.1820	-0.0951	167.1143	23.3765	11.4746
-0.9740	-0.1825	-0.1067	162.1094	27.2827	11.9019
-0.9399	-0.1929	-0.1130	157.1045	30.8228	14.4653
-0.8875	-0.1938	-0.1110	150.8179	30.3955	16.7847
-0.8794	-0.1973	-0.0914	145.5688	23.1934	18.4326
-0.8888	-0.2092	-0.0724	141.4185	12.3901	19.0430
-0.8779	-0.2208	-0.0801	138.0615	0.1831	18.9209
-0.8671	-0.2267	-0.1061	135.1929	-12.2070	17.4561
-0.8781	-0.2236	-0.1176	133.0566	-23.4375	13.9160
-0.9073	-0.2157	-0.1410	131.5918	-33.2642	9.5215
-0.9594	-0.1934	-0.1676	132.2021	-36.6211	5.2490
-1.0317	-0.1908	-0.1676	136.2915	-31.7993	2.2583
-1.0840	-0.1940	-0.1633	141.2354	-17.8223	2.0752
-1.0991	-0.1829	-0.1743	147.3389	5.7983	5.4932
-1.0815	-0.1742	-0.1985	154.9072	35.7666	11.9019
-1.0020	-0.1840	-0.2363	161.9263	65.1855	18.6768
-0.8975	-0.2102	-0.2805	165.3442	86.1206	23.3765
-0.8262	-0.2394	-0.3246	163.3301	94.2993	24.7803
-0.7266	-0.2767	-0.3929	156.9824	89.7217	22.8882
-0.5341	-0.3845	-0.6097	141.6626	69.2749	20.5078
-0.4137	-0.7062	-0.9393	100.7690	28.2593	15.1978
-0.6373	-1.1575	-1.3771	10.3760	-14.0381	8.3008
-1.0273	-1.3043	-1.5757	-138.1836	-17.8833	1.6479
-1.2230	-0.9189	-1.7162	-299.1943	26.3062	-21.1792
-1.1556	-0.3517	-1.9413	-444.3359	70.4956	-60.4858
-1.0602	0.1426	-2.1426	-575.7446	83.2520	-90.3320
-0.9701	0.4579	-2.2627	-678.6499	87.8906	-108.3984
-0.6781	0.7568	-2.1512	-746.9482	89.7827	-117.8589
-0.0658	0.8204	-1.8767	-780.0903	57.1899	-121.5210
0.3081	0.8506	-1.5314	-801.1475	-5.4321	-119.8730
-0.0812	0.8356	-1.1256	-812.8662	-87.2803	-124.7559
-0.7523	1.2247	-0.5979	-811.8286	-184.3262	-151.8555
-1.3171	1.6865	0.1991	-774.1699	-231.9946	-155.4565
-1.8981	2.0902	1.2621	-690.6738	-222.9004	-136.7798
-2.3186	2.3184	1.8640	-553.1006	-203.7354	-96.4355
-2.2632	2.1604	1.8539	-386.4136	-166.5649	-43.8843
-1.8390	1.9498	1.7441	-242.1265	-100.5859	10.5591
-1.4941	1.7946	1.5874	-129.2114	-44.9219	64.3921
-1.2451	1.5942	1.3198	-41.8701	-22.7051	111.7554
-1.0500	1.2864	0.9757	25.8179	-20.7520	144.5312
-0.9258	0.9434	0.5745	74.0967	-25.5737	157.2876
-0.8409	0.6643	0.2164	98.1445	-33.0200	153.6865
-0.8403	0.4557	-0.0238	102.6001	-35.0342	138.7329
-0.8960	0.2946	-0.1896	98.5718	-25.8179	116.0278
-0.9167	0.1549	-0.3160	93.0786	-7.4463	89.2334
-0.8687	-0.0221	-0.3977	87.8906	12.5122	62.2559
-0.7961	-0.2262	-0.4608	82.3364	25.5127	35.4004
-0.7767	-0.2891	-0.4821	72.2046	25.6348	11.2915
-0.8771	-0.2075	-0.4326	58.2886	21.1792	-7.9956
-1.0510	-0.1256	-0.3392	47.0581	23.3154	-23.8037
-1.1305	-0.0828	-0.2483	39.9170	30.6396	-33.0811
-1.1174	-0.0457	-0.1844	35.9497	39.0625	-36.6211
-1.1154	-0.0261	-0.1243	34.9731	45.1050	-34.6069
-1.1099	-0.0052	-0.0564	37.2314	46.5698	-26.4893
-1.1082	0.0212	0.0200	44.1284	43.8232	-13.7939
-1.1134	0.0348	0.0701	55.5420	37.2925	0.8545
-1.1350	0.0563	0.0774	68.1763	28.9917	17.5171
-1.1508	0.0868	0.0701	78.9795	23.4375	33.5693
-1.1415	0.1030	0.0734	88.0127	20.6299	47.0581
-1.1359	0.1058	0.0674	96.6187	20.0806	58.7769
-1.0864	0.1046	0.0697	105.4688	20.6299	69.6411
-1.0453	0.1002	0.0901	116.0889	20.4468	77.7588
-1.0540	0.0819	0.1001	128.3569	19.6533	82.4585
-1.0635	0.0653	0.1035	141.7847	20.8740	84.3506
-1.0095	0.0620	0.0834	155.2734	25.3906	83.5571
-0.9589	0.0519	0.0688	168.6401	32.4097	79.3457
-0.9285	0.0356	0.0770	181.8848	40.2832	72.9370
-0.9091	0.0221	0.0759	195.0073	47.8516	65.3687
-0.9139	-0.0013	0.0612	205.8105	53.1006	56.2134
-0.9050	-0.0266	0.0554	212.7686	57.1899	45.3491
-0.8694	-0.0461	0.0326	216.1255	60.4858	35.7056
-0.8518	-0.0642	-0.0109	216.1865	60.7910	27.6489
-0.8551	-0.0924	-0.0482	213.0737	58.5327	20.0806
-0.8528	-0.1097	-0.0685	208.2520	55.7861	14.1602
-0.8745	-0.1078	-0.0878	204.1016	51.6357	9.8877
-0.8934	-0.1195	-0.0975	202.7588	45.7153	7.9346
-0.9113	-0.1278	-0.0629	203.5522	41.5039	9.0332
-0.9115	-0.1294	-0.0382	206.4819	37.1704	13.0615
-0.9137	-0.1279	-0.0706	210.5713	31.1890	16.6626
-0.9017	-0.1431	-0.0897	211.1816	24.2310	19.8364
-0.8898	-0.1698	-0.1160	207.7637	17.5781	23.3765
-0.8837	-0.1830	-0.1505	200.6836	9.9487	25.0854
-0.8683	-0.1873	-0.1906	192.0776	2.0142	23.4985
-0.8696	-0.1915	-0.2024	184.3872	-5.3101	19.7754
-0.9004	-0.1870	-0.1869	179.2603	-14.5874	14.9536
-0.9468	-0.1761	-0.1910	179.1382	-21.5454	10.6201
-0.9617	-0.1621	-0.2076	184.2041	-22.0947	7.6904
-0.9722	-0.1593	-0.2218	191.5894	-17.1509	5.2490
-0.9857	-0.1720	-0.2562	199.6460	-8.1177	3.8452
-1.0084	-0.1953	-0.3022	204.5288	7.5073	4.0894
-1.0028	-0.2035	-0.3188	205.3833	28.6255	6.8359
-0.9744	-0.2052	-0.3258	202.5757	54.1382	10.7422
-0.9323	-0.2081	-0.3530	197.6318	78.2471	15.2588
-0.8331	-0.2344	-0.3877	190.2466	95.5811	18.9819
-0.6799	-0.3464	-0.5532	173.4619	99.2432	20.9961
-0.6816	-0.6580	-0.9260	132.9956	85.2051	18.3716
-0.8872	-1.1267	-1.2986	37.9639	68.7256	11.9629
-1.1539	-1.3589	-1.3239	-123.4741	82.9468	6.3477
-1.3533	-1.0920	-1.2725	-301.1475	130.4321	-5.3711
-1.2938	-0.3977	-1.6720	-461.3647	171.2036	-18.5547
-0.9990	0.1707	-1.8673	-600.8301	168.2739	-33.5083
-0.3862	0.5596	-2.0190	-703.1860	135.5591	-58.1055
0.2855	0.6357	-2.0720	-763.9160	71.2891	-93.0786
0.5513	0.5297	-1.7963	-811.8896	-28.9307	-130.8594
0.2358	0.7849	-1.5083	-840.8813	-120.1172	-164.3066
-0.5131	1.0259	-1.1526	-836.9141	-159.4849	-175.1709
-0.8799	1.3458	-0.7440	-826.2329	-205.9326	-202.3926
-0.8802	1.7150	-0.2321	-795.4102	-221.8628	-229.8584
-1.0634	1.8893	0.1473	-724.9756	-207.5806	-237.9150
-1.5088	2.1029	0.6594	-646.9116	-202.3315	-226.9897
-2.2340	2.3440	1.2300	-552.4902	-187.4390	-199.0356
-2.6421	2.4573	1.5233	-417.8467	-133.7891	-153.0762
-2.3009	2.3724	1.7006	-265.2588	-40.9546	-80.5664
-1.6971	2.1329	1.6185	-116.2109	39.8560	3.0518
-1.2045	1.7831	1.3136	11.9019	76.7212	83.3740
-0.9365	1.3629	0.9725	108.5815	73.9136	146.9116
-0.8188	1.0266	0.6226	177.4292	45.7153	180.3589
-0.7562	0.8286	0.2662	222.9004	8.7891	189.7583
-0.7450	0.6847	-0.0409	248.2300	-18.8599	184.0210
-0.8214	0.5402	-0.2808	258.7280	-26.4282	170.1660
-0.8602	0.3629	-0.4672	258.9722	-14.0381	153.1982
-0.8523	0.2162	-0.5491	248.9014	7.5073	134.6436
-0.8777	0.1620	-0.5374	232.3608	28.0151	113.8306
-0.9402	0.0447	-0.5282	216.8579	43.8843	95.8252
-0.9147	-0.0704	-0.5074	197.3877	49.3774	78.9185
-1.0992	-0.0005	-0.2285	167.3584	44.8608	62.1948
-1.0211	-0.0172	-0.3817	153.7476	42.8467	43.8843
-0.9375	-0.0995	-0.4044	149.7192	32.4097	41.0156
-1.0504	-0.0256	-0.3090	133.5449	35.1563	40.3442
-1.0985	0.0101	-0.2231	119.6899	34.3628	39.4897
-1.0839	0.0059	-0.1866	107.8491	31.0059	39.2456
-1.0591	0.0203	-0.1442	98.4497	29.2358	42.2974
-1.0555	0.0375	-0.0895	91.4917	24.2920	47.9736
-1.0466	0.0679	-0.0446	86.9751	17.3950	54.0161
-1.0444	0.0680	-0.0317	86.6089	9.0942	58.4717
-0.9901	0.0294	-0.0149	87.2803	0.3052	61.4014
-0.9867	0.0575	0.0300	86.9751	-5.3101	62.6831
-1.0148	0.0670	0.0507	90.8813	-6.3477	64.4531
-1.0287	0.0681	0.0696	97.7783	-4.6997	67.0166
-1.0696	0.0565	0.1044	107.2998	-3.6011	70.1904
-1.0208	0.0640	0.1075	118.4082	0.4883	73.7915
-0.9462	0.0573	0.1053	130.7373	9.0942	75.8667
-0.8976	0.0115	0.0861	143.5547	16.2354	75.9277
-0.8625	-0.0332	0.0441	154.3579	20.9961	74.2798
-0.8459	-0.0701	0.0253	162.9639	21.6675	69.9463
-0.8400	-0.0945	0.0090	169.6167	20.6909	64.0869
-0.8535	-0.1058	-0.0168	174.6826	20.9351	57.3120
-0.8502	-0.1193	-0.0389	178.4668	22.7661	50.7202
-0.8453	-0.1333	-0.0431	181.6406	25.2075	44.5557
-0.8907	-0.1353	-0.0300	184.3872	26.6113	38.4521
-0.9524	-0.1279	-0.0631	188.1714	24.7803	34.3018
-0.9437	-0.1237	-0.0939	189.8193	25.2075	31.4331
-0.9293	-0.1333	-0.1033	190.3076	29.1138	28.4424
-0.9261	-0.1498	-0.1165	190.4297	33.9355	26.4282
-0.9063	-0.1671	-0.1211	189.6362	39.6118	24.5361
-0.8589	-0.1919	-0.1266	187.7441	43.4570	22.8271
-0.8188	-0.2213	-0.1321	183.7158	41.2598	20.8130
-0.8024	-0.2441	-0.1423	177.0020	31.9214	18.4326
-0.8243	-0.2648	-0.1460	168.3350	21.1792	13.9771
-0.8596	-0.2627	-0.1414	160.4614	11.7798	9.8877
-0.9043	-0.2305	-0.1548	153.8086	5.3101	7.2632
-0.9469	-0.2041	-0.1594	149.5972	0.1221	5.0659
