aX	aY	aZ	gX	gY	gZ	
-0.1176	-0.2820	1.0425	-12.5122	12.5732	3.4180
-0.0822	-0.2699	1.0688	-11.5967	9.8267	4.1504
-0.0664	-0.2448	1.1125	-9.6436	7.0190	5.4932
-0.0758	-0.2379	1.1234	-4.8218	2.2583	7.4463
-0.0664	-0.2390	1.1365	-2.0142	2.0752	8.0566
-0.0946	-0.2688	1.1296	1.5869	0.9766	8.1787
-0.2004	-0.2014	1.1663	0.8545	-0.3662	4.6387
-0.2419	-0.1757	1.2391	2.1362	1.4648	3.3569
-0.2223	-0.2396	1.2443	8.4229	6.4087	4.9438
-0.1931	-0.2432	1.2383	14.5874	8.6670	7.3242
-0.1106	-0.2838	1.2140	19.7144	7.5073	8.6060
-0.0734	-0.3049	1.1906	22.1558	3.9673	6.5918
-0.0492	-0.3165	1.1792	23.3765	-2.6855	3.2959
-0.0537	-0.2906	1.1755	22.7661	-6.1035	-0.4883
-0.0670	-0.2792	1.1559	25.3906	-7.4463	-1.7700
-0.1154	-0.2830	1.1218	32.2876	-9.0332	-2.2583
-0.1510	-0.3009	1.0699	36.6821	-5.9814	-3.2349
-0.1433	-0.2849	1.0236	37.9639	-0.5493	-4.5776
-0.1238	-0.2847	0.9868	38.4521	5.0659	-3.7842
-0.1039	-0.2859	0.9526	41.0156	4.1504	-1.7090
-0.0944	-0.2853	0.9280	40.6494	2.2583	-1.9531
-0.1055	-0.2913	0.9072	40.0391	-2.1362	-2.6245
-0.1158	-0.2760	0.8861	38.2690	-5.1270	-2.1973
-0.1364	-0.2677	0.8610	37.1704	-6.5308	-1.4648
-0.1510	-0.2830	0.8347	37.2314	-4.8828	-1.1597
-0.1475	-0.2937	0.8080	36.6211	-0.8545	-1.5869
-0.1364	-0.3036	0.7802	36.8652	2.0752	0.0000
-0.1083	-0.3274	0.7625	34.8511	4.5776	-1.0986
-0.0935	-0.3296	0.7482	32.4707	6.1035	-0.5493
-0.0793	-0.3412	0.7236	31.7993	1.5259	-0.6714
-0.0944	-0.3479	0.6864	30.3955	-1.7090	-0.8545
-0.1259	-0.3362	0.6390	30.3955	-8.0566	-1.8311
-0.1482	-0.3206	0.5690	28.0151	-7.8125	-3.3569
-0.1475	-0.3252	0.4642	28.1982	-7.7515	-2.2583
-0.1279	-0.3213	0.3376	25.3296	-5.3711	-2.3804
-0.1223	-0.2889	0.1906	22.7051	-7.2632	-2.6855
-0.1331	-0.2632	-0.0071	19.2261	-6.4087	-3.7231
-0.1398	-0.2683	-0.2877	19.2871	-6.6528	-1.8921
-0.1661	-0.3134	-0.6093	15.8691	-4.7607	-1.2207
-0.1987	-0.3523	-0.9104	1.7700	3.7842	-1.2207
-0.2115	-0.3291	-1.1410	-24.9634	17.5781	-1.1597
-0.1855	-0.2219	-1.2869	-63.3545	34.9121	0.3662
-0.1738	-0.0538	-1.3264	-103.2104	52.3682	4.4556
-0.1714	0.0924	-1.2706	-135.3760	62.1338	12.3291
-0.1531	0.2423	-1.1396	-166.4429	72.9370	23.4985
-0.0950	0.3616	-0.9618	-190.7349	79.3457	36.9263
0.2620	1.4963	3.9065	-203.4302	85.2051	41.3818
3.9357	3.6904	3.4800	96.6797	-84.1064	24.2920
-3.5272	-3.9995	0.0590	313.4766	-240.3564	-74.4629
-1.6180	-2.9592	-0.4396	117.6147	75.5615	19.7754
2.3281	0.4211	1.0981	-126.4648	161.5601	-71.1670
0.9661	0.0637	0.7969	-112.6099	5.2490	-54.0771
-1.3705	-0.2352	0.9905	-106.6284	-94.2993	-37.2925
-0.7737	0.1259	1.5573	-101.8677	-63.2935	-37.5977
-0.2869	-0.0088	1.4780	-69.7021	-7.2021	-2.9907
-0.2458	-0.0226	1.5186	-54.9316	5.1880	15.4419
-0.4282	0.1602	1.6387	-53.4058	-7.3242	8.9722
-0.3993	0.0376	1.6198	-33.6304	-6.5918	9.7046
-0.1368	-0.1332	1.5179	-10.1929	-0.4272	13.9771
0.0492	-0.3684	1.4231	6.6528	4.9438	10.9253
0.0693	-0.4691	1.3116	14.8315	0.0610	5.5542
0.0704	-0.4706	1.1958	17.2729	-3.4180	2.7466
0.0782	-0.4755	1.1039	18.7988	-3.6621	3.4180
0.0421	-0.4852	1.0300	17.5171	-4.2725	4.0894
-0.0271	-0.4722	0.9862	13.9771	-4.3945	4.2114
-0.0820	-0.4359	0.9725	7.3242	-1.7090	3.2349
-0.0891	-0.3828	0.9769	0.4272	1.8311	3.2349
-0.0968	-0.3116	1.0105	-3.1128	3.6621	3.2349
-0.1212	-0.2743	1.0463	-4.4556	4.7607	3.7842
-0.1193	-0.2491	1.0697	-6.2256	6.9580	5.0049
-0.0870	-0.2408	1.0841	-6.5308	7.3853	5.7373
-0.0531	-0.2441	1.0924	-6.7749	7.1411	6.7749
-0.0186	-0.2410	1.1028	-7.6294	4.6387	6.5918
0.0039	-0.2355	1.0980	-8.6060	-0.4272	5.4932
-0.0662	-0.1517	1.1201	-9.6436	-7.1411	4.3945
-0.1536	-0.1177	1.1669	-6.7139	-8.1177	3.1738
-0.2140	-0.1278	1.1854	0.1831	-1.0376	3.0518
-0.2048	-0.1334	1.1686	8.3618	6.9580	5.5542
-0.1431	-0.1775	1.1305	15.1978	13.4888	8.0566
-0.0510	-0.1959	1.1431	17.5171	14.0381	10.0098
-0.0215	-0.2148	1.1466	18.0664	6.0425	8.1177
-0.0630	-0.2238	1.1338	18.9819	-2.6245	5.1880
-0.0900	-0.2478	1.1157	19.9585	-7.8125	3.1128
-0.0969	-0.2655	1.0980	20.3247	-7.0801	2.4414
-0.0830	-0.2786	1.0812	23.3765	-6.4697	3.2959
-0.0684	-0.2745	1.0698	24.7803	-2.0142	2.2583
-0.0455	-0.2833	1.0430	29.6631	-1.6479	2.9297
-0.0393	-0.2985	1.0065	33.0200	-1.7090	1.0376
-0.0470	-0.3140	0.9733	34.3018	-1.0376	0.1221
-0.0459	-0.3008	0.9418	35.5225	-1.5259	-0.0610
-0.0465	-0.3010	0.9120	36.9263	-1.9531	-0.1831
-0.0593	-0.3198	0.8773	38.3301	-0.6714	-0.8545
-0.0624	-0.3239	0.8457	37.6587	1.4038	-1.9531
-0.0554	-0.3313	0.8228	36.0718	2.5635	-1.8311
-0.0479	-0.3190	0.8224	32.0435	4.1504	-2.1362
-0.0529	-0.3077	0.8324	27.8320	3.4180	-3.4180
-0.0712	-0.2911	0.8380	25.0244	1.7700	-5.0659
-0.0848	-0.2836	0.8461	24.7192	0.1831	-4.4556
-0.0858	-0.2877	0.8544	23.6816	0.6104	-4.5776
-0.0714	-0.2964	0.8502	26.0620	-0.6714	-2.4414
-0.0754	-0.3013	0.8580	27.8320	-3.4790	-2.3193
-0.0581	-0.3208	0.8593	28.1372	-2.9907	-2.0752
-0.0386	-0.3275	0.8551	28.9307	-3.3569	-2.3804
-0.0427	-0.3308	0.8462	28.6865	-3.8452	-3.6621
-0.0533	-0.3702	0.8120	29.0527	-3.9062	-4.7607
-0.0433	-0.3831	0.7770	27.1606	-3.3569	-5.9204
-0.0476	-0.3761	0.7362	24.3530	-2.9907	-7.3242
-0.0820	-0.3790	0.6735	21.6064	-2.1973	-9.8877
-0.0823	-0.3687	0.6010	19.3481	-4.2114	-11.8408
-0.0830	-0.3250	0.5236	15.9302	-8.0566	-10.9253
-0.0699	-0.2944	0.4070	13.1836	-11.7798	-11.2305
-0.0355	-0.2694	0.2485	13.4277	-16.4185	-9.7046
0.0021	-0.2788	0.0304	13.4888	-19.3481	-8.3008
0.0000	-0.3048	-0.2201	12.0239	-18.7378	-7.0801
-0.0140	-0.3077	-0.4817	3.7842	-11.9019	-10.6201
-0.0796	-0.2960	-0.7311	-9.5825	-2.1973	-12.9395
-0.1821	-0.3068	-0.9713	-31.1279	13.1226	-15.5029
-0.2679	-0.2605	-1.1448	-59.7534	29.1748	-13.5498
-0.3156	-0.0991	-1.2181	-96.0693	49.9878	-8.5449
-0.3221	0.0797	-1.2103	-126.9531	65.7349	1.8311
-0.2638	0.2249	-1.1616	-153.3203	77.0264	17.4561
-0.1893	0.3912	-1.0530	-177.2461	78.6133	33.8745
0.0697	1.1637	1.4633	-197.9370	78.4912	46.4478
3.9995	3.9449	3.9995	26.3672	-23.5596	44.0674
-1.4301	-3.0153	0.3068	299.0723	-357.9102	-89.9048
-3.4832	-3.9995	-0.5463	219.0552	-4.5166	31.3721
1.6726	-0.2072	1.0222	-82.5806	101.5015	-51.3916
0.8218	0.4331	1.0957	-125.9766	0.8545	-44.5557
-1.3586	-0.4648	1.2225	-104.4312	-65.6128	-20.5078
-0.9155	0.0172	1.6256	-99.4263	-38.8794	-35.7056
-0.5933	0.1882	1.6256	-78.1860	-4.1504	-16.9067
-0.5410	0.1072	1.6487	-56.7017	19.8975	15.8081
-0.3444	0.2690	1.6255	-49.3774	17.7002	19.5313
-0.1642	0.0862	1.5487	-29.1138	17.3340	19.0430
0.0038	-0.1375	1.3835	-7.8735	14.1602	16.9678
0.1602	-0.3954	1.2770	7.5684	9.2773	13.1836
0.1879	-0.5012	1.1638	16.3574	-0.0610	8.8501
0.1304	-0.5212	1.1021	17.6392	-6.6528	4.2725
0.1033	-0.5078	1.0728	15.3198	-7.6294	3.1738
0.0406	-0.4670	1.0388	12.3291	-6.7139	1.5259
-0.0505	-0.3975	1.0010	8.8501	-5.3101	-1.2207
-0.1112	-0.3535	0.9690	6.5918	-2.5635	-2.8076
-0.1390	-0.3075	0.9495	5.3711	1.2207	-2.3193
-0.1077	-0.2920	0.9406	5.1880	2.8687	0.1831
-0.0687	-0.2812	0.9492	4.3335	2.8076	3.2349
-0.0490	-0.2798	0.9916	1.9531	2.3804	5.0049
-0.0479	-0.2692	1.0359	-0.8545	1.6479	5.7373
-0.0327	-0.2618	1.0728	-2.8076	0.9766	6.8359
-0.0131	-0.2931	1.0903	-4.3335	0.0000	7.9956
0.0168	-0.2432	1.1267	-6.8970	-4.5166	9.0942
-0.0688	-0.1639	1.1436	-8.7280	-11.5356	7.8735
-0.1997	-0.1025	1.2062	-10.0708	-14.8926	5.4932
-0.2643	-0.0524	1.2737	-5.1270	-10.1318	6.8970
-0.2273	-0.0597	1.3038	6.9580	-4.3945	10.1929
-0.1425	-0.1498	1.2556	21.7896	3.4790	11.4136
-0.0752	-0.2228	1.1870	30.2124	6.2866	10.7422
-0.0404	-0.2474	1.1334	31.6162	1.5259	9.3384
-0.0519	-0.2496	1.0933	28.8086	-3.3569	7.0801
-0.0822	-0.2592	1.0580	25.6958	-7.2021	5.3101
-0.0991	-0.2556	1.0358	21.7285	-6.9580	4.5776
-0.0791	-0.2428	1.0203	18.9819	-5.3101	4.6997
-0.0350	-0.2444	1.0111	19.7144	-3.5400	4.3335
0.0010	-0.2561	0.9943	22.5220	-2.6245	1.8311
0.0122	-0.2653	0.9720	27.3438	-4.5166	0.0610
0.0000	-0.2758	0.9476	32.0435	-6.6528	-1.0376
-0.0245	-0.2898	0.9043	36.7432	-6.5918	-2.8687
-0.0579	-0.3048	0.8539	39.0625	-2.6855	-5.2490
-0.0736	-0.3322	0.8090	41.7480	0.6104	-4.2114
-0.0555	-0.3473	0.7758	39.6729	3.6011	-5.2490
-0.0519	-0.3593	0.7601	34.9731	5.4932	-5.1270
-0.0494	-0.3728	0.7574	27.4658	6.5308	-6.1646
-0.0493	-0.3457	0.7843	17.9443	7.5684	-7.7515
-0.0591	-0.3306	0.8206	14.3433	2.4414	-6.1035
-0.0773	-0.3085	0.8569	12.9395	-0.7935	-5.6763
-0.0881	-0.2981	0.8806	14.7095	-3.3569	-4.6997
-0.1028	-0.2981	0.8940	18.4326	-5.4932	-4.0283
-0.1044	-0.3164	0.8979	23.0103	-6.1646	-3.5400
-0.1245	-0.3330	0.9022	26.1230	-5.6152	-3.5400
-0.1423	-0.3510	0.8893	25.6348	-2.5024	-5.1270
-0.1625	-0.3379	0.8840	23.2544	2.0752	-4.6997
-0.1686	-0.3168	0.8815	21.3623	3.1128	-5.1880
-0.1808	-0.2936	0.8643	18.7378	7.4463	-4.8218
-0.1683	-0.2900	0.8364	18.4326	8.0566	-4.6387
-0.1444	-0.2776	0.8055	15.6860	10.1318	-5.0049
-0.1068	-0.2686	0.7611	17.5171	4.5166	-0.9155
-0.0819	-0.2844	0.7029	18.1274	-1.7090	0.3052
-0.0735	-0.3081	0.6263	18.7378	-6.4087	1.4038
-0.0779	-0.3280	0.5303	21.1792	-14.2822	1.6479
-0.0830	-0.3456	0.4105	20.2026	-17.3950	0.9766
-0.0779	-0.3645	0.2721	16.4795	-16.1133	-0.4272
-0.0518	-0.3652	0.1277	9.8877	-9.5215	-0.2441
0.0037	-0.3439	-0.0446	5.1270	-6.5308	0.8545
0.0520	-0.3198	-0.2601	0.5493	-5.6763	0.1831
0.0554	-0.2719	-0.4879	-8.7280	-3.7231	-4.8218
-0.0240	-0.1754	-0.7117	-25.3906	2.5635	-11.2305
-0.1630	-0.1323	-0.9194	-45.6543	15.1978	-13.9771
-0.2717	-0.1387	-1.0552	-71.7773	31.8604	-12.8174
-0.2858	-0.0223	-1.0573	-107.3608	52.6733	-6.8970
-0.2412	0.1786	-0.9558	-140.5640	71.5942	4.3335
-0.2087	0.3489	-0.8247	-160.8276	77.5757	21.6064
-0.1692	0.4423	-0.7112	-174.9878	79.6509	40.6494
2.3022	3.1318	3.9995	-113.8916	40.6494	61.4014
3.7051	0.4160	0.7832	286.4990	-235.6567	10.4980
-3.9995	-3.9995	-0.9960	315.5518	-114.5630	-49.0112
0.5107	-1.0858	0.6329	-5.4932	34.5459	-19.0430
1.2415	0.2992	1.1373	-126.8311	32.0435	-28.8696
-0.3341	-0.5533	0.9991	-99.0601	-62.8662	-14.4653
-1.1046	0.0402	1.3940	-108.2153	-86.1816	-44.9219
-0.7782	0.1230	1.7256	-91.1865	-46.3867	-32.5928
-0.7151	0.0389	1.7714	-64.5142	-11.2915	-1.7700
-0.6699	0.1760	1.7473	-53.1006	-3.0518	7.1411
-0.4769	0.0880	1.6730	-35.7666	3.4180	14.5874
-0.1072	-0.1829	1.5668	-14.7095	8.0566	18.0054
0.0530	-0.4159	1.3766	-0.2441	4.2725	13.4277
0.1232	-0.5626	1.2521	7.2632	0.3052	7.9956
0.1666	-0.5988	1.1715	6.7139	-4.5776	3.2349
0.1467	-0.5825	1.1227	4.5166	-10.1318	1.0376
0.0360	-0.5029	1.0891	-0.9766	-12.5732	-4.5776
-0.0793	-0.4191	1.0552	-4.8218	-9.5215	-6.7749
-0.1957	-0.3086	1.0338	-6.4087	-7.3242	-7.3853
-0.2723	-0.2235	1.0238	-7.0190	-1.1597	-5.9814
-0.2491	-0.1777	1.0161	-5.1880	5.7983	-2.7466
-0.1971	-0.1497	1.0118	-2.5635	10.8643	1.5259
-0.1420	-0.1509	1.0156	-0.6104	14.1602	5.3101
-0.0627	-0.1926	1.0300	0.1831	14.3433	6.6528
0.0054	-0.1372	1.0260	0.3662	8.4229	10.0098
-0.0841	-0.0840	1.1039	-2.1973	-3.2349	9.9487
-0.1982	-0.0947	1.1417	0.7935	-2.9297	7.9346
-0.2136	-0.1288	1.1375	7.6294	10.6812	8.7891
-0.1296	-0.1854	1.1051	13.6719	26.7944	11.9629
-0.0543	-0.1927	1.0962	13.6108	34.3018	14.2212
0.0515	-0.1705	1.1416	10.6812	27.4048	13.9160
0.0244	-0.1771	1.1505	12.1460	13.9771	8.7891
-0.0414	-0.2041	1.1306	14.7705	3.2959	4.9438
-0.0817	-0.2115	1.1184	15.4419	-3.1738	3.0518
-0.1122	-0.2045	1.1066	16.1743	-2.6245	1.8921
-0.1047	-0.2181	1.0883	18.1885	0.7324	1.4038
-0.0767	-0.2479	1.0615	20.9961	3.4180	1.7090
-0.0438	-0.2697	1.0366	22.0337	4.0894	0.4272
-0.0298	-0.2798	1.0082	22.2778	2.8076	-1.0376
-0.0387	-0.2725	0.9989	21.5454	-0.9155	-2.9297
-0.0559	-0.2505	0.9961	22.1558	-5.4932	-3.5400
-0.0764	-0.2534	0.9790	24.7803	-9.8877	-4.0283
-0.0848	-0.2821	0.9509	27.6489	-10.8032	-3.8452
-0.0923	-0.3007	0.9225	28.9917	-9.0942	-3.5400
-0.0742	-0.3164	0.9050	27.6489	-5.0659	-4.6387
-0.0557	-0.3179	0.8989	27.3438	-3.2959	-4.6387
-0.0554	-0.3252	0.8815	26.1230	-1.9531	-6.2866
-0.0771	-0.3201	0.8658	24.2310	-2.4414	-8.4229
-0.1128	-0.3011	0.8652	22.5220	-4.8828	-9.0942
-0.1561	-0.2823	0.8724	20.3247	-4.7607	-9.0942
-0.1819	-0.2717	0.8663	21.3623	-4.8218	-7.8125
-0.1672	-0.2781	0.8575	23.1323	-3.3569	-5.9814
-0.1318	-0.2915	0.8561	22.3999	-0.2441	-5.4932
-0.1080	-0.2888	0.8594	23.2544	-1.0376	-4.0283
-0.1082	-0.2898	0.8560	23.7427	-2.2583	-5.1270
-0.1174	-0.2878	0.8549	24.2310	-3.3569	-6.2866
-0.1290	-0.2815	0.8480	25.6958	-4.2114	-5.9814
-0.1423	-0.2744	0.8333	26.8555	-2.7466	-6.4087
-0.1447	-0.2762	0.8030	29.4800	-2.5024	-6.1035
-0.1426	-0.2947	0.7616	31.1279	-2.9907	-4.3945
-0.1376	-0.3005	0.7220	29.7852	-3.4790	-2.9297
-0.1395	-0.2966	0.6753	26.7334	-5.1880	-2.8687
-0.1194	-0.2979	0.6162	24.7803	-7.0190	-1.7090
-0.0723	-0.3102	0.5402	21.5454	-7.8125	-2.3804
-0.0338	-0.3242	0.4462	21.1792	-12.2681	-1.2207
-0.0278	-0.3386	0.3267	19.4092	-15.4419	-3.2349
-0.0460	-0.3503	0.1970	16.0522	-13.9160	-4.4556
-0.0374	-0.3608	0.0665	12.0850	-12.2070	-5.3101
-0.0425	-0.3712	-0.0553	4.3335	-5.4932	-5.9814
-0.0782	-0.3766	-0.1685	-5.3711	-0.4883	-6.8970
-0.0865	-0.3298	-0.2864	-25.3296	10.8643	-11.3525
-0.0693	-0.2334	-0.4261	-44.2505	19.5313	-11.8408
-0.0475	-0.2028	-0.6163	-59.1431	25.5737	-12.0239
0.0239	-0.1852	-0.8486	-72.5708	26.7944	-8.4229
0.0458	-0.0929	-1.1000	-90.3931	23.6816	-8.3618
-0.0199	-0.0503	-1.3730	-108.9478	23.1934	-8.0566
-0.1227	0.0277	-1.5741	-136.0474	35.8276	-8.1787
-0.1576	0.1642	-1.6520	-173.3398	63.7207	-4.4556
1.6426	3.9983	3.9995	-109.8633	82.3364	8.2397
3.5825	-1.9502	0.7765	265.9302	-174.3774	-43.8843
-3.9995	-3.9983	-0.7205	215.4541	-112.1216	-60.6689
0.2069	-1.3574	0.6320	-33.7524	85.9985	-41.9922
1.5168	1.2194	1.2130	-134.3384	46.5698	-30.5176
-0.2163	-0.3430	1.1367	-84.4727	-63.5376	-25.6958
-1.1545	-0.4070	1.5269	-75.5615	-68.1152	-40.2222
-0.4921	0.2186	1.9530	-85.3882	-63.5986	-30.2734
-0.8618	0.1223	2.0200	-67.5049	-34.9121	2.0142
-0.8317	0.3174	1.9608	-52.0020	-18.4326	15.2588
-0.6230	0.2848	1.8799	-31.6162	-10.1318	22.1558
-0.4065	-0.0004	1.7930	-5.2490	-7.2021	27.1606
-0.2784	-0.2277	1.6362	12.0850	-3.0518	20.7520
-0.2115	-0.3524	1.4679	22.2168	5.1880	16.4185
-0.0774	-0.4045	1.3403	27.9541	11.9629	15.6860
0.0182	-0.4399	1.2404	29.8462	14.7095	12.2681
0.0092	-0.4637	1.1472	28.8696	15.3809	8.6060
-0.0381	-0.4409	1.0569	27.2827	15.6860	7.6904
-0.0686	-0.3890	0.9767	23.1934	17.4561	6.1646
-0.0714	-0.3597	0.9482	17.5171	19.8975	6.6528
-0.0476	-0.3041	0.9734	10.1318	21.9116	7.0190
-0.0231	-0.2615	0.9998	4.2114	21.7896	7.2632
-0.0072	-0.2384	1.0089	1.2817	20.6299	9.0942
0.0365	-0.2340	1.0200	0.4883	14.2212	11.6577
0.0668	-0.2356	1.0389	-2.5635	8.1787	12.7563
0.0719	-0.2462	1.0498	-5.5542	-0.6104	13.1226
0.0149	-0.2401	1.0500	-9.2163	-7.3242	12.2681
-0.0475	-0.2106	1.0626	-14.3433	-8.4229	9.1553
-0.0989	-0.1588	1.0737	-15.9912	-9.6436	7.6904
-0.1589	-0.0718	1.0940	-15.5640	-7.3853	6.1035
-0.2439	-0.0123	1.1409	-9.6436	-4.5166	5.1880
-0.2451	-0.0433	1.2087	0.9766	5.9814	7.8125
-0.1295	-0.0891	1.1909	12.5732	13.0005	10.9863
-0.0719	-0.1869	1.1566	21.1792	11.1084	15.1978
-0.0518	-0.2474	1.1212	23.0103	3.6621	12.8174
-0.0553	-0.2657	1.1006	20.6909	-4.3945	10.4370
-0.0818	-0.2754	1.0869	17.3950	-9.3384	7.5684
-0.1079	-0.2758	1.0809	16.1133	-12.6343	5.8594
-0.1273	-0.2583	1.0839	13.9160	-9.6436	2.5024
-0.1217	-0.2604	1.0792	14.8315	-3.4180	2.3193
-0.1035	-0.2585	1.0580	19.5923	-0.9155	2.8076
-0.0759	-0.2799	1.0267	22.7051	0.7324	2.1973
-0.0671	-0.2991	0.9908	25.7568	-1.4648	1.6479
-0.0831	-0.3007	0.9541	26.8555	-5.1880	0.1221
-0.1049	-0.2874	0.9185	26.6113	-6.7749	-1.0986
-0.1060	-0.2780	0.8864	26.7334	-6.8359	-1.5869
-0.1278	-0.2692	0.8527	26.9165	-4.3945	-1.6479
-0.1255	-0.2753	0.8203	27.2217	0.8545	-1.3428
-0.0854	-0.2793	0.7935	26.0620	5.3711	-2.2583
-0.0507	-0.2936	0.7839	23.3154	7.9346	-2.6855
-0.0300	-0.2938	0.7902	18.6768	8.7280	-3.4790
-0.0284	-0.2972	0.7979	16.6626	4.7607	-3.4180
-0.0336	-0.3002	0.8171	17.5171	-2.6855	-3.1738
-0.0542	-0.2739	0.8472	15.8081	-5.6763	-5.1270
-0.0721	-0.2534	0.8630	18.4937	-6.4697	-4.5776
-0.0925	-0.2601	0.8511	22.7661	-6.1035	-6.4087
-0.1198	-0.2823	0.8273	24.2920	-1.9531	-7.4463
-0.1401	-0.2766	0.7979	22.8882	0.1831	-9.1553
-0.1564	-0.2699	0.7733	19.6533	1.8311	-8.9111
-0.1632	-0.2708	0.7545	14.8315	2.5635	-8.7280
-0.1426	-0.2552	0.7424	11.3525	0.0610	-7.8735
-0.1260	-0.2344	0.7355	9.3994	-2.9297	-7.0190
-0.1086	-0.2247	0.7129	9.9487	-7.3242	-6.8359
-0.0859	-0.2340	0.6647	13.6108	-13.6719	-4.7607
-0.0737	-0.2302	0.5848	16.0522	-17.0898	-4.8218
-0.0928	-0.2427	0.4595	19.9585	-19.7754	-4.7607
-0.1124	-0.2930	0.2972	20.8740	-15.5640	-5.5542
-0.1133	-0.3333	0.1233	17.8833	-11.3525	-5.7373
-0.0724	-0.3696	-0.0485	7.2632	-3.2349	-5.9814
0.0084	-0.3500	-0.2144	-4.6387	-1.7090	-4.6997
0.0208	-0.3057	-0.3868	-20.6299	-2.0142	-7.2021
-0.0354	-0.2491	-0.5659	-39.0625	1.4648	-9.9487
-0.1387	-0.1202	-0.7432	-60.4248	11.4136	-15.2588
-0.2373	0.0258	-0.8940	-79.2847	27.4048	-15.9302
-0.3008	0.1798	-0.9896	-97.8394	47.6074	-10.0708
-0.2861	0.2585	-1.0278	-114.4409	62.3169	4.3945
-0.1906	0.2642	-0.9930	-137.5732	75.8667	21.5454
-0.5911	2.0648	3.9995	-153.1982	83.6792	38.0859
3.0272	2.1669	3.9995	169.6167	67.8711	51.1475
-1.4198	-3.9995	0.9235	312.6831	-212.8296	-23.8647
-1.8018	-2.6942	-0.3705	124.6948	66.9556	-13.0615
1.2603	-0.0609	0.9135	-82.7637	43.6401	-34.9731
0.3263	-0.3837	0.9922	-90.2710	-12.3291	-17.8833
-0.8448	-0.2488	0.8918	-89.7217	-52.0020	-33.3252
-0.5096	0.2173	1.4401	-91.8579	-30.4565	-40.5884
-0.4841	0.1799	1.6249	-64.7583	-11.5356	-8.0566
-0.5089	0.0100	1.5870	-39.1846	0.1221	13.3667
-0.3258	-0.0208	1.5139	-27.7100	7.0190	16.4185
-0.0763	-0.1112	1.4639	-18.1885	10.4370	16.7847
0.1371	-0.3077	1.4084	-6.4087	5.0659	14.2212
0.1377	-0.4302	1.3049	0.5493	1.3428	7.3853
0.1252	-0.4585	1.1898	6.0425	-3.2959	2.5635
0.1013	-0.4397	1.1293	5.7983	-7.6904	-1.2817
0.0468	-0.4156	1.1129	1.6479	-7.8125	-2.6855
-0.0466	-0.4082	1.0845	0.3052	-11.2915	-3.1738
-0.1141	-0.3781	1.0482	-4.5776	-9.2163	-5.7373
-0.1422	-0.3448	1.0233	-9.5825	-5.6152	-4.0283
-0.1461	-0.3097	1.0315	-10.6812	-7.5073	0.6714
-0.0964	-0.2684	1.0472	-12.9395	-8.8501	3.2349
-0.0619	-0.2218	1.0593	-15.8081	-9.7046	3.8452
-0.0344	-0.1809	1.0847	-17.7612	-9.3384	4.3945
-0.0316	-0.1514	1.1145	-14.8926	-14.8315	4.8828
-0.0653	-0.1143	1.1444	-14.0991	-17.2729	1.9531
-0.0804	-0.0916	1.1646	-10.7422	-15.7471	2.1362
-0.1321	-0.0781	1.2396	-4.7607	-17.5781	2.7466
-0.1599	-0.0547	1.2577	1.0986	-14.5874	0.0610
-0.1943	-0.1262	1.2301	12.6953	-10.8643	-0.9155
-0.1810	-0.2192	1.1537	20.5688	-6.1646	-0.8545
-0.1427	-0.2344	1.1084	19.6533	-1.3428	0.3662
-0.0950	-0.2187	1.0808	19.5923	-4.1504	1.8921
-0.0747	-0.1930	1.0574	18.2495	-8.1177	-0.3052
-0.0867	-0.1876	1.0295	17.5171	-9.2163	-1.7090
-0.1008	-0.1952	1.0010	20.4468	-12.5732	-1.2207
-0.1083	-0.2050	0.9830	19.4702	-11.5967	-4.1504
-0.1162	-0.2014	0.9750	18.4326	-7.3853	-4.5776
-0.1130	-0.2307	0.9536	22.0947	-6.7139	-2.9907
-0.1100	-0.2639	0.9221	26.5503	-8.3008	-2.1362
-0.1046	-0.2766	0.9023	26.9165	-7.3853	-3.1128
-0.0945	-0.2856	0.8837	25.6348	-3.6621	-3.7231
-0.1082	-0.2719	0.8733	26.1841	-2.3193	-3.1738
-0.1348	-0.2483	0.8710	26.4282	-2.9297	-4.5776
-0.1611	-0.2257	0.8817	24.5361	1.1597	-5.4321
-0.1842	-0.2076	0.8855	24.4751	5.6152	-4.2725
-0.1952	-0.2253	0.8743	25.8789	8.4229	-3.9673
-0.1802	-0.2469	0.8729	25.9399	10.6812	-1.9531
-0.1515	-0.2533	0.8840	23.4375	10.2539	0.3052
-0.1324	-0.2540	0.8955	21.1792	6.8359	1.9531
-0.1432	-0.2555	0.9081	21.1182	-0.3662	1.4648
-0.1633	-0.2629	0.9102	19.5923	-2.0142	-0.2441
-0.1694	-0.2606	0.9093	22.0337	-4.5776	1.2817
-0.1584	-0.2634	0.9104	23.1934	-4.3335	0.3052
-0.1561	-0.2526	0.8997	25.0854	-2.8687	0.6104
-0.1659	-0.2437	0.8676	27.5269	-1.5869	0.2441
-0.1775	-0.2594	0.8307	29.6631	-0.7935	-0.1831
-0.1862	-0.2753	0.7926	30.4565	-0.9155	0.4272
-0.1788	-0.2843	0.7579	29.1748	-1.4648	0.3662
-0.1708	-0.2855	0.7271	27.0996	-2.7466	1.5869
-0.1595	-0.2949	0.6931	23.2544	-3.5400	2.5024
-0.1313	-0.3054	0.6500	20.9961	-7.1411	4.5166
-0.0835	-0.3076	0.6057	17.6392	-9.1553	4.9438
-0.0110	-0.3103	0.5320	16.9067	-13.2446	4.3945
0.0437	-0.3103	0.4331	17.6392	-16.6626	3.3569
0.0292	-0.3074	0.3179	19.5923	-19.2261	-0.3662
-0.0245	-0.3307	0.1710	19.8975	-16.4795	-4.3945
-0.0549	-0.3644	0.0167	17.2119	-10.8032	-5.6763
-0.0432	-0.3660	-0.1439	7.5684	-2.1973	-5.8594
0.0006	-0.3719	-0.3068	-7.5684	8.0566	-5.6152
0.0109	-0.3156	-0.4590	-26.1230	15.9302	-9.0942
-0.0358	-0.2356	-0.6051	-44.4946	24.9634	-12.5122
-0.0989	-0.1454	-0.7275	-61.6455	35.3394	-13.3667
-0.0922	-0.0188	-0.8120	-79.2847	47.4243	-9.4604
-0.0776	0.0568	-0.8975	-94.3604	58.8379	-1.5259
-0.1141	0.1213	-0.9369	-113.4644	70.3125	8.5449
-0.0935	0.2028	-0.8937	-142.9443	85.2661	18.6157
1.5439	3.7944	3.9995	-92.9565	92.7734	36.4990
3.6522	-1.5918	1.5121	246.8872	-135.8032	-15.5029
-3.9995	-3.9995	-0.2908	204.1016	-168.5791	-23.8037
0.0978	-0.8549	0.4646	-54.4434	68.3594	-36.2549
0.9360	0.5448	1.4005	-141.3574	41.8091	-25.2075
-0.4863	0.0209	1.1143	-94.4824	-21.3623	-0.4883
-0.9733	0.1523	1.0137	-75.3174	-42.5415	-26.9165
-0.5481	0.1608	1.4888	-57.8003	-17.6392	-3.4180
-0.2678	0.0350	1.7062	-35.1563	-3.9673	29.0527
-0.3369	-0.0857	1.6411	-21.7285	2.3193	29.6631
-0.2156	-0.1213	1.5792	-15.2588	9.7046	25.4517
0.0005	-0.2438	1.5215	-7.0190	8.6670	27.4048
0.1083	-0.4771	1.4265	1.5869	4.6997	23.1934
0.1111	-0.5310	1.3029	3.9673	-2.1362	14.2822
0.0907	-0.5225	1.1827	2.1973	-6.1646	5.0049
0.0454	-0.4507	1.1158	-0.9155	-8.6670	-0.1221
-0.0267	-0.3804	1.0873	-3.5400	-11.1084	-2.5635
-0.1010	-0.3177	1.0665	-4.8828	-11.7187	-4.5166
-0.1210	-0.2928	1.0424	-4.6387	-10.9863	-3.7231
-0.1044	-0.2845	1.0328	-6.2866	-10.3760	-1.2207
-0.1002	-0.2418	1.0304	-9.2163	-10.8032	-0.6714
-0.1390	-0.1718	1.0485	-12.8174	-11.9629	-1.8311
-0.1606	-0.1084	1.0687	-13.3057	-13.4277	-1.0986
-0.1610	-0.0781	1.0940	-10.2539	-12.4512	1.2207
-0.1349	-0.0956	1.1461	-5.6763	-10.2539	2.3804
-0.1482	-0.0133	1.2307	-1.5869	-10.5591	4.2114
-0.1558	-0.0730	1.2798	6.3477	-11.0474	4.4556
-0.1405	-0.1648	1.2618	16.4185	-8.9722	6.5308
-0.0829	-0.2157	1.2321	23.4375	-8.3008	7.5073
-0.0680	-0.2610	1.1987	27.0386	-7.5684	5.5542
-0.0756	-0.2689	1.1620	29.1138	-7.8735	2.9907
-0.1003	-0.2878	1.1086	31.1279	-8.6670	0.5493
-0.1154	-0.2997	1.0515	31.6162	-8.1787	-0.9155
-0.1102	-0.2996	1.0034	30.7007	-6.6528	-2.0142
-0.0922	-0.2874	0.9705	28.8086	-5.2490	-3.6621
-0.0728	-0.2729	0.9548	27.2217	-5.7373	-4.3945
-0.0570	-0.2488	0.9517	26.2451	-7.8125	-3.9062
-0.0719	-0.2209	0.9576	27.3438	-11.1084	-4.2725
-0.1018	-0.2229	0.9402	31.8604	-12.5732	-4.8828
-0.1263	-0.2402	0.9067	36.3159	-10.1929	-5.3711
-0.1462	-0.2588	0.8604	39.6729	-5.7373	-4.6997
-0.1523	-0.2861	0.8104	41.5649	-0.8545	-4.2114
-0.1484	-0.3195	0.7766	39.9170	2.9297	-4.2114
-0.1477	-0.3138	0.7726	34.4238	4.2725	-4.0894
-0.1429	-0.2966	0.7797	28.9917	3.1738	-3.1128
-0.1519	-0.2751	0.7958	25.0854	1.9531	-2.9907
-0.1576	-0.2501	0.8163	23.1934	1.0376	-2.0142
-0.1617	-0.2369	0.8253	23.1323	0.7935	-0.1831
-0.1583	-0.2466	0.8232	24.0479	1.1597	1.7090
-0.1483	-0.2627	0.8142	24.4141	1.4648	2.8687
-0.1316	-0.2844	0.8080	23.4375	0.8545	2.8687
-0.1407	-0.2970	0.8094	21.5454	0.1221	1.2817
-0.1520	-0.3138	0.8092	20.0806	-0.4272	-0.6104
-0.1731	-0.3270	0.8121	18.2495	-0.1221	-1.4038
-0.1737	-0.3278	0.8256	15.1367	1.2817	-1.8311
-0.1523	-0.3036	0.8521	12.4512	2.0142	-2.0142
-0.1278	-0.2892	0.8800	11.4746	0.6714	-0.9155
-0.1144	-0.2882	0.8901	12.0239	-1.5259	-1.3428
-0.1179	-0.2789	0.8911	13.7939	-3.8452	-2.3804
-0.1252	-0.2784	0.8851	16.5405	-5.2490	-2.6855
-0.1414	-0.2797	0.8625	19.8364	-5.4321	-2.8076
-0.1475	-0.2997	0.8181	22.8882	-4.1504	-2.8687
-0.1439	-0.3391	0.7526	23.9868	-1.9531	-2.9297
-0.1394	-0.3734	0.6840	21.9727	-0.9155	-3.2959
-0.1216	-0.3876	0.6316	16.7847	-0.6714	-3.9673
-0.0995	-0.3787	0.5886	9.4604	-2.2583	-4.8218
-0.0709	-0.3521	0.5323	2.6855	-5.0659	-5.8594
-0.0552	-0.3104	0.4629	-1.6479	-8.8501	-7.5684
-0.0690	-0.2877	0.3649	-3.1128	-11.4746	-8.7891
-0.0917	-0.2709	0.2362	-3.9062	-11.1084	-9.7046
-0.1061	-0.2957	0.0732	-5.1880	-6.2256	-9.5825
-0.0997	-0.3134	-0.1050	-10.3149	1.4648	-8.9722
-0.0972	-0.3097	-0.2812	-22.4609	10.9863	-10.2539
-0.1027	-0.2990	-0.4694	-40.2832	20.2026	-12.4512
-0.1409	-0.2860	-0.6343	-62.6831	26.1230	-13.5498
-0.2019	-0.2039	-0.7410	-89.7827	33.1421	-13.3667
-0.1984	-0.0431	-0.7823	-118.2861	45.1660	-10.4980
-0.1732	0.1237	-0.7454	-141.8457	62.6221	-6.2866
-0.0880	0.2552	-0.6433	-158.9355	78.4912	3.1738
0.0549	0.3073	-0.5006	-171.8140	86.4868	18.5547
-0.5421	3.9249	3.9995	-114.2578	100.8301	39.0015
3.6687	0.3361	3.6127	284.1797	56.6406	54.5044
-1.1287	-3.9983	-0.1229	339.9048	-138.0615	-3.2349
-1.0773	-2.3436	-0.4703	114.1968	18.2495	-10.4980
0.6415	-0.8254	1.0800	-84.9609	-18.4937	-19.3481
-0.0237	-0.5161	1.2554	-129.5166	-25.2075	-6.7749
-0.6570	-0.0709	1.2728	-139.8315	-48.0347	-31.4331
-0.9231	0.3097	1.6222	-132.2021	-33.1421	-36.3159
-1.0426	0.5677	1.8926	-100.4028	-14.5264	-1.8311
-0.7858	0.3553	1.7625	-52.9785	14.5874	26.0010
-0.2991	0.0758	1.5548	-22.0947	37.5977	38.5742
0.1327	-0.0585	1.5416	-12.3901	36.0107	37.6587
0.2596	-0.2876	1.4569	-4.0894	24.4141	28.5645
0.2615	-0.4943	1.3125	3.9062	14.4653	21.2402
0.3024	-0.5521	1.2146	3.9673	4.9438	16.1133
0.3027	-0.5028	1.1749	-1.7700	-4.0283	9.2773
0.1865	-0.4219	1.1420	-7.6294	-15.0757	2.8076
0.0405	-0.3578	1.0880	-11.1084	-22.1558	-1.6479
-0.0547	-0.3136	1.0356	-13.6719	-23.0103	-3.4180
-0.1038	-0.2607	1.0308	-17.6392	-21.4844	-3.7231
-0.1287	-0.1812	1.0485	-20.5078	-20.4468	-2.5024
-0.1215	-0.1309	1.0380	-18.1885	-20.5078	0.7324
-0.0933	-0.1079	1.0586	-12.3291	-20.8130	4.4556
-0.0455	-0.0713	1.1526	-6.4087	-22.2168	6.3477
-0.0397	-0.0387	1.2085	1.8921	-26.6113	7.0801
-0.1116	-0.0397	1.2719	11.9019	-29.2358	4.3335
-0.1570	-0.1266	1.2660	23.5596	-26.1230	2.9297
-0.1470	-0.1627	1.2317	32.2266	-20.0195	3.6011
-0.1445	-0.1923	1.1835	36.6821	-14.1602	3.3569
-0.1555	-0.2253	1.1353	38.2690	-10.2539	3.4180
-0.1505	-0.2183	1.0974	37.9639	-10.3760	4.0894
-0.1399	-0.2168	1.0583	38.3911	-11.7187	4.4556
-0.1327	-0.2300	1.0179	39.8560	-13.3667	4.1504
-0.1288	-0.2489	0.9841	41.0156	-15.0757	3.9673
-0.1289	-0.2594	0.9393	40.9546	-16.3574	3.7842
-0.1107	-0.2595	0.9041	40.7104	-17.2729	3.2959
-0.1140	-0.2677	0.8788	39.1846	-17.5171	2.0752
-0.1425	-0.2699	0.8632	36.1938	-16.9678	1.1597
-0.1577	-0.2612	0.8623	32.7759	-14.1602	0.9766
-0.1604	-0.2551	0.8636	29.9683	-8.9111	0.2441
-0.1464	-0.2451	0.8682	27.9541	-3.7231	-0.7324
-0.1450	-0.2466	0.8763	27.3438	-0.8545	-0.7935
-0.1359	-0.2605	0.8860	27.1606	-0.6714	-0.0610
-0.1411	-0.2502	0.8862	26.9165	-3.3569	1.0376
-0.1626	-0.2518	0.8721	27.8931	-6.1035	2.0752
-0.1705	-0.2688	0.8529	30.0293	-6.5308	3.2349
-0.1608	-0.2749	0.8373	31.5552	-5.0659	4.7607
-0.1453	-0.2861	0.8119	32.9590	-2.4414	4.8218
-0.1205	-0.3112	0.7903	33.0200	0.2441	4.8828
-0.1007	-0.3199	0.7939	30.7617	1.4038	4.5776
-0.0831	-0.3040	0.8130	27.7710	2.1973	2.5635
-0.0887	-0.3105	0.8308	26.5503	1.7090	1.0376
-0.1104	-0.3193	0.8578	24.9634	0.7935	-0.3662
-0.1309	-0.3071	0.8744	23.2544	-0.3662	-1.8921
-0.1682	-0.3048	0.8716	21.9116	-0.7935	-3.1738
-0.1993	-0.2966	0.8687	22.2168	-2.9297	-1.5259
-0.1991	-0.2976	0.8579	21.7896	-3.3569	0.2441
-0.1996	-0.2998	0.8286	24.1089	-6.5308	2.8076
-0.1948	-0.3223	0.7875	23.2544	-5.9204	2.6855
-0.1775	-0.3270	0.7454	23.7427	-7.3242	3.5400
-0.1572	-0.3302	0.7073	20.1416	-5.4321	1.9531
-0.1458	-0.3257	0.6659	19.2871	-5.6763	3.3569
-0.1317	-0.3324	0.6056	18.7378	-8.7280	2.0142
-0.1300	-0.3347	0.5305	16.9678	-8.5449	0.8545
-0.1222	-0.3424	0.4401	15.1367	-8.9111	0.4272
-0.0791	-0.3601	0.3271	12.6953	-9.4604	0.1831
-0.0188	-0.3981	0.1893	9.2163	-9.8877	0.1221
0.0554	-0.4254	0.0165	4.1504	-11.4746	-0.5493
0.1047	-0.4122	-0.1907	-2.0142	-13.3667	-2.3193
0.1066	-0.3938	-0.4240	-10.6201	-12.0850	-7.4463
0.0709	-0.3853	-0.6675	-24.7192	-4.8218	-15.4419
-0.0186	-0.3582	-0.8813	-46.1426	7.3242	-22.4609
-0.1000	-0.2832	-1.0077	-74.0967	24.8413	-25.7568
-0.1462	-0.1450	-1.0206	-106.2012	47.7905	-25.6958
-0.1398	0.0460	-0.9340	-134.6436	70.4956	-18.4326
-0.0901	0.1978	-0.7937	-157.4097	90.0269	-7.9346
-0.0216	0.3149	-0.6298	-171.2036	99.9146	4.6387
-0.5846	1.2965	3.9762	-175.3540	106.5674	15.6860
0.5228	3.7589	3.9995	122.4976	173.4009	51.8799
2.1498	-3.9995	1.4995	342.2852	-204.9561	15.3198
-3.4802	-2.9740	-1.5378	213.6841	5.3711	-4.2725
0.9802	-1.0540	0.5526	-49.9878	35.5835	-34.9731
0.7783	-0.2573	1.5199	-135.2539	-9.2773	-16.8457
-0.5548	-0.2444	1.1893	-137.4512	-59.2651	-19.7754
-0.8915	0.0808	1.4368	-135.0708	-44.3115	-53.3447
-0.8223	0.4602	1.8364	-115.4175	-24.5972	-22.2778
-0.7251	0.3453	1.9133	-74.4019	-5.4321	18.1885
-0.4687	0.0797	1.6780	-40.4053	13.9771	26.4282
-0.1051	0.0061	1.5864	-26.8555	19.0430	23.6206
0.1107	-0.1248	1.5663	-17.0288	13.4888	19.7144
0.1891	-0.3844	1.4152	-1.4648	7.5684	17.1509
0.2145	-0.5151	1.2561	8.1787	-0.6714	12.8784
0.2096	-0.5217	1.1860	9.3994	-7.9956	5.1270
0.1406	-0.4856	1.1381	6.9580	-15.5029	-0.5493
0.0200	-0.4625	1.0883	5.0049	-20.3857	-3.6011
-0.0658	-0.4272	1.0416	2.8076	-20.5688	-6.0425
-0.1049	-0.3912	1.0089	-1.0376	-17.2729	-6.8970
-0.1342	-0.3508	1.0089	-5.1880	-13.6719	-6.4697
-0.1447	-0.2881	1.0137	-10.3760	-11.7798	-7.0801
-0.1190	-0.2189	1.0292	-14.7095	-11.2915	-6.2256
-0.1086	-0.1462	1.0649	-17.5171	-13.7939	-4.3335
-0.1252	-0.0775	1.0994	-16.7236	-15.8081	-2.1973
-0.1022	-0.0406	1.1342	-11.1084	-16.1133	-0.6104
-0.1265	-0.0146	1.2177	-3.8452	-17.2119	0.1831
-0.1824	0.0177	1.2761	3.7842	-18.8599	0.3052
-0.2246	-0.0859	1.2649	16.1743	-15.8691	2.0752
-0.2139	-0.1636	1.2202	25.7568	-10.9253	4.9438
-0.1573	-0.1884	1.1801	29.3579	-5.6763	5.8594
-0.1123	-0.2137	1.1365	30.3345	-2.8076	5.7983
-0.1005	-0.2322	1.1017	30.1514	-2.9907	4.3335
-0.1018	-0.2292	1.0822	28.5645	-4.1504	2.1973
-0.1151	-0.2126	1.0695	27.1606	-5.6763	0.0610
-0.1265	-0.2003	1.0554	27.4658	-5.8594	-1.6479
-0.1182	-0.2152	1.0436	28.9307	-6.2256	-1.7700
-0.1051	-0.2187	1.0353	30.2124	-7.0801	-1.6479
-0.1014	-0.2214	1.0150	32.2876	-8.1177	-2.0752
-0.1169	-0.2428	0.9941	35.5225	-8.9722	-2.7466
-0.1387	-0.2560	0.9644	37.2314	-7.8125	-3.1738
-0.1418	-0.2634	0.9305	39.0625	-5.8594	-3.2959
-0.1390	-0.2889	0.8950	39.7339	-2.1362	-3.4180
-0.1355	-0.3016	0.8630	38.2080	1.8921	-3.6621
-0.1244	-0.3135	0.8339	35.8887	5.1880	-3.4180
-0.1183	-0.3187	0.8289	33.5693	5.2490	-3.6621
-0.1144	-0.3077	0.8315	31.1279	5.2490	-3.4180
-0.1227	-0.2858	0.8463	29.6021	3.9673	-4.2114
-0.1331	-0.2781	0.8489	31.0669	1.5869	-4.2725
-0.1299	-0.2837	0.8562	33.1421	1.4038	-3.6621
-0.1176	-0.3115	0.8638	35.1563	-0.7324	-2.5024
-0.1045	-0.3246	0.8623	35.5835	-1.7090	-1.9531
-0.1201	-0.3397	0.8466	34.6680	-1.5869	-3.8452
-0.1493	-0.3463	0.8322	35.0342	-2.7466	-4.3945
-0.1716	-0.3422	0.8121	33.0811	0.1221	-6.1035
-0.1887	-0.3386	0.7864	33.7524	-0.5493	-6.1035
-0.1810	-0.3573	0.7596	30.7007	2.5635	-6.8970
-0.1635	-0.3401	0.7361	27.8931	2.3804	-6.7749
-0.1440	-0.3381	0.7112	25.3296	1.3428	-7.2021
-0.1078	-0.3254	0.6884	23.7427	-1.6479	-6.9580
-0.0873	-0.3124	0.6709	22.7661	-6.3477	-7.0190
-0.1047	-0.3008	0.6415	23.1323	-11.2915	-8.0566
-0.1167	-0.2961	0.5931	24.9634	-15.0146	-9.5825
-0.1416	-0.3011	0.5150	27.8320	-18.2495	-11.8408
-0.1599	-0.3499	0.4093	26.9165	-14.8315	-13.2446
-0.1460	-0.3774	0.3010	22.4609	-10.1929	-10.4370
-0.1040	-0.3763	0.2018	17.0898	-10.6812	-8.7280
-0.0513	-0.3566	0.1144	7.8735	-8.9722	-10.0708
0.0029	-0.3297	0.0190	1.3428	-10.3149	-10.5591
0.0375	-0.3116	-0.1093	-4.9438	-10.1318	-14.9536
0.0425	-0.2737	-0.2581	-10.3149	-11.3525	-18.7378
0.0192	-0.2067	-0.4225	-18.7378	-10.1929	-24.5361
-0.0223	-0.1826	-0.6306	-26.4282	-5.3101	-27.2217
-0.1042	-0.2030	-0.8616	-37.3535	1.0986	-26.6724
-0.2046	-0.2379	-1.0669	-60.3027	15.1367	-19.1650
-0.2913	-0.1826	-1.1697	-97.1680	34.0576	-9.6436
-0.2839	0.0092	-1.1124	-142.3340	60.3027	0.2441
-0.1797	0.3212	-0.8990	-183.7769	87.8906	12.0239
-0.0222	0.6656	0.4541	-207.2754	107.6660	24.6582
-0.8462	3.9995	3.9995	-6.1646	226.5015	61.5845
3.9995	-3.9995	2.7466	278.3813	-79.4678	40.1611
-3.9995	-3.0721	-0.4749	215.0269	-228.3325	-1.2207
-0.6783	-1.2921	-0.0001	6.5918	80.2612	-42.1143
1.4761	-0.3866	1.5073	-121.2158	77.9419	-33.9355
-0.0709	-0.1504	1.2471	-106.5674	15.5640	-8.2397
-0.8284	-0.0559	1.1656	-98.8159	-42.9688	-44.7998
-0.7257	0.0750	1.6672	-85.3271	-26.2451	-30.6396
-0.5248	0.1117	1.8779	-65.4907	-7.8125	5.4321
-0.4954	-0.0132	1.7488	-45.8984	5.6763	16.9678
-0.3311	0.0294	1.6406	-33.2031	13.1226	18.7378
-0.0806	-0.1255	1.5540	-19.1650	14.7705	22.7661
0.0884	-0.3859	1.4301	-4.6997	9.5825	24.1089
0.0791	-0.4575	1.3408	1.9531	2.1362	17.0898
0.1401	-0.4843	1.2899	6.4697	-2.0752	10.4980
0.1454	-0.4805	1.2213	9.2163	-6.7139	5.6763
0.0719	-0.4709	1.1533	9.3994	-11.4746	0.3052
0.0082	-0.4409	1.1075	7.9346	-14.2212	-3.8452
-0.0079	-0.4022	1.0721	5.4321	-16.1743	-6.1646
-0.0289	-0.3702	1.0397	1.7700	-19.6533	-7.9956
-0.0719	-0.3298	1.0278	-1.8311	-23.2544	-10.1929
-0.1108	-0.2681	1.0199	-3.9062	-25.8789	-11.4136
-0.1108	-0.2189	1.0273	-4.0283	-28.5034	-11.1694
-0.1031	-0.1469	1.0742	-3.5400	-30.2734	-11.4746
-0.0900	-0.0947	1.1176	1.4648	-33.8745	-9.6436
-0.1234	-0.1538	1.1018	11.2915	-37.9639	-7.1411
-0.1509	-0.1322	1.0721	16.5405	-41.1987	-7.8735
-0.2386	-0.0872	1.0651	19.8364	-40.7104	-7.6294
-0.3497	-0.0948	1.1346	22.8882	-35.4004	-5.3101
-0.3873	-0.1718	1.0962	30.7007	-21.4844	0.1221
-0.3098	-0.2096	1.0679	35.8276	-6.8359	4.8218
-0.2067	-0.2434	1.0444	37.6587	1.5259	7.6904
-0.1360	-0.2657	1.0331	37.7197	2.7466	7.7515
-0.1127	-0.2788	1.0234	37.2314	-2.0142	5.5542
-0.1344	-0.2867	1.0135	36.4990	-8.1177	2.5635
-0.1962	-0.2753	1.0090	37.1704	-13.3057	0.6104
-0.2460	-0.2717	1.0033	38.6353	-14.7705	0.1831
-0.2709	-0.2798	0.9962	40.0391	-11.1694	0.8545
-0.2632	-0.3005	0.9750	41.1377	-4.9438	2.8076
-0.2323	-0.3162	0.9475	41.0156	1.7700	4.4556
-0.1968	-0.3070	0.9312	40.2222	5.4932	5.2490
-0.1705	-0.3087	0.9171	39.4287	6.8970	4.2114
-0.1511	-0.3141	0.9061	38.7573	6.1646	3.2349
-0.1357	-0.3138	0.8950	38.0859	3.2959	2.8076
-0.1233	-0.3219	0.8711	38.5132	-0.3052	2.1362
-0.1218	-0.3514	0.8467	39.2456	-3.5400	1.7090
-0.1302	-0.3610	0.8323	38.4521	-5.4321	0.7935
-0.1362	-0.3674	0.8186	37.1704	-5.9204	-1.2207
-0.1423	-0.3732	0.8093	36.1328	-5.0659	-2.6855
-0.1619	-0.3833	0.8025	34.4849	-3.9062	-3.1738
-0.1610	-0.3898	0.7898	31.8604	-1.6479	-3.5400
-0.1626	-0.3728	0.7781	28.5645	0.0000	-3.4790
-0.1525	-0.3508	0.7709	25.6348	0.1831	-4.4556
-0.1390	-0.3324	0.7576	24.2310	-1.4648	-5.0049
-0.1349	-0.3313	0.7249	23.9868	-4.9438	-4.8218
-0.1339	-0.3466	0.6799	23.7427	-10.2539	-5.1270
-0.1427	-0.3595	0.6227	22.3999	-15.1367	-5.7373
-0.1547	-0.3525	0.5745	19.1650	-19.5923	-5.5542
-0.1858	-0.3289	0.5310	14.7095	-21.0571	-5.7983
-0.2144	-0.3176	0.4773	11.9019	-19.5313	-5.7373
-0.2091	-0.3130	0.3992	10.5591	-16.6016	-4.8218
-0.1586	-0.3113	0.2998	7.6904	-10.5591	-3.7842
-0.0845	-0.3279	0.1816	4.3945	-5.9814	-2.0752
-0.0187	-0.3209	0.0309	0.6714	-2.9907	-1.1597
0.0227	-0.3096	-0.1530	-0.5493	-5.2490	0.6104
0.0017	-0.3104	-0.3894	-3.4790	-5.6763	-0.6714
-0.0752	-0.3574	-0.6617	-14.8315	4.0894	-2.8076
-0.1328	-0.4005	-0.9144	-38.8184	23.5596	-5.2490
-0.1345	-0.3531	-1.0574	-76.7822	47.8516	-8.3008
-0.1089	-0.1703	-1.0746	-118.1030	67.9932	-8.4229
-0.0789	0.0437	-1.0038	-150.8179	77.9419	-3.9062
-0.0601	0.1619	-0.9197	-176.2695	86.6699	2.6855
-0.0223	0.2391	-0.8591	-193.5425	93.9331	11.1694
-0.6198	1.3698	3.9995	-196.7163	114.9292	14.8926
3.9995	1.1925	3.9995	44.0063	64.8193	-21.3623
-2.9379	-2.0750	1.6467	175.2930	-394.2261	-80.8716
-3.4401	-2.9337	-1.0609	155.2124	15.5640	43.2739
1.8384	-0.7118	0.4969	-40.9546	131.9580	-33.5083
1.1672	0.1456	1.1772	-126.8921	34.5459	-26.7334
-1.0947	0.2861	1.3423	-131.2866	-77.9419	-22.7661
-1.4277	0.0563	1.5240	-95.3979	-46.6309	-36.9263
-0.6656	0.0852	1.6996	-66.8335	-3.7231	-3.5400
-0.5619	0.2288	1.7878	-54.3213	9.0332	23.5596
-0.6434	0.1613	1.6921	-37.9639	19.8364	25.6348
-0.3896	0.0905	1.5447	-22.2778	30.2124	25.4517
-0.1204	-0.0142	1.4023	-9.5825	29.4189	28.1982
0.0518	-0.2440	1.3459	1.6479	23.3154	26.6113
0.1641	-0.3701	1.2461	10.6201	11.5356	20.6299
0.1577	-0.4445	1.1589	15.5029	2.2583	14.4043
0.1399	-0.4586	1.0927	17.1509	-3.7842	9.5215
0.0590	-0.4630	1.0538	16.6016	-8.5449	4.5166
-0.0592	-0.4390	1.0265	14.7095	-10.8643	0.4883
-0.1577	-0.3958	1.0063	12.1460	-10.4980	-2.3193
-0.2072	-0.3619	0.9875	8.9722	-6.5308	-3.6011
-0.2217	-0.3090	0.9794	4.9438	-2.2583	-4.7607
-0.2288	-0.2467	1.0009	1.6479	0.8545	-4.5166
-0.1857	-0.2002	1.0173	0.9155	0.6714	-2.8687
-0.1086	-0.2053	1.0272	2.5635	-1.2817	-0.0610
-0.0667	-0.2174	1.0283	2.8687	-3.8452	0.8545
-0.0383	-0.2279	1.0488	2.0752	-7.5684	0.9766
-0.0208	-0.2900	1.0747	1.8921	-13.4888	0.3052
-0.0913	-0.1687	1.0695	1.9531	-24.5361	2.9297
-0.1738	-0.1115	1.1810	0.9155	-29.9072	2.4414
-0.2131	-0.1638	1.2095	9.9487	-24.1089	0.6104
-0.2241	-0.2021	1.1943	20.3247	-14.0991	1.9531
-0.1736	-0.2325	1.1711	27.8931	-5.0659	2.6245
-0.1306	-0.2606	1.1442	31.9214	0.4272	1.7090
-0.1219	-0.2799	1.1149	34.0576	0.3662	0.0610
-0.1251	-0.2932	1.0878	33.5083	-3.0518	-1.5869
-0.1272	-0.2976	1.0739	31.7383	-7.1411	-2.9907
-0.1417	-0.2935	1.0697	29.4800	-10.7422	-4.3945
-0.1642	-0.2803	1.0673	28.3203	-13.4888	-6.1035
-0.1787	-0.2830	1.0431	28.6865	-14.3433	-7.2632
-0.1995	-0.2837	1.0127	29.9072	-14.1602	-7.2632
-0.2240	-0.2843	0.9960	31.1279	-13.4277	-6.4697
-0.2252	-0.2667	0.9755	31.9214	-11.1084	-6.4697
-0.2164	-0.2539	0.9470	34.3628	-8.7891	-4.9438
-0.2074	-0.2772	0.9031	38.0859	-8.6670	-2.9907
-0.2015	-0.3018	0.8575	39.9780	-8.3008	-1.8311
-0.1892	-0.3164	0.8243	39.1846	-7.5684	-1.0986
-0.1816	-0.3196	0.8145	37.3535	-6.5308	-0.3052
-0.1707	-0.3215	0.8076	35.4004	-4.6997	-0.3052
-0.1653	-0.3257	0.8102	33.8135	-3.1738	-0.6714
-0.1687	-0.3256	0.8204	31.3721	-1.3428	-1.4038
-0.1727	-0.3112	0.8253	29.0527	0.6104	-2.5024
-0.1760	-0.3035	0.8262	28.5645	1.1597	-3.0518
-0.1608	-0.3041	0.8229	28.8696	1.0986	-2.3193
-0.1440	-0.3019	0.8142	30.5786	-3.0518	-1.6479
-0.1588	-0.3066	0.7939	32.7148	-8.2397	-1.1597
-0.1917	-0.3115	0.7567	32.5928	-10.9863	-3.4790
-0.2197	-0.3170	0.7135	32.9590	-11.9629	-2.5024
-0.2323	-0.3240	0.6631	31.7383	-11.1694	-2.6245
-0.2262	-0.3295	0.6213	28.9307	-6.8970	-0.7324
-0.2114	-0.3212	0.5825	25.5737	-5.3711	-0.9766
-0.1949	-0.3257	0.5370	18.7988	-0.0610	-1.9531
-0.1610	-0.3263	0.4928	15.1978	-0.7935	-0.7935
-0.1340	-0.3179	0.4553	9.5215	-1.8311	-2.0142
-0.1171	-0.3148	0.4066	6.5918	-4.3945	-1.3428
-0.0886	-0.3331	0.3392	4.3945	-8.9722	-1.5869
-0.0638	-0.3395	0.2611	1.2817	-12.4512	-1.1597
-0.0746	-0.3510	0.1653	-3.3569	-13.4277	-2.6245
-0.1042	-0.3672	0.0658	-10.0098	-12.7563	-3.7842
-0.1379	-0.3478	-0.0248	-19.8975	-7.5684	-3.9673
-0.1281	-0.2996	-0.1229	-32.8369	1.3428	-6.4087
-0.0916	-0.2511	-0.2520	-43.9453	11.4746	-7.5073
-0.0619	-0.2213	-0.4054	-55.4810	20.5078	-10.4980
-0.0665	-0.2119	-0.5577	-69.5801	28.0151	-13.6719
-0.0656	-0.1787	-0.7196	-88.5010	33.5083	-14.4653
-0.0951	-0.1542	-0.8511	-111.9995	38.0249	-11.1694
-0.1104	-0.1144	-0.9102	-140.8691	47.9736	-5.9814
-0.0922	0.0216	-0.8540	-174.6216	65.6128	-3.2349
-0.0178	0.2900	-0.3098	-204.8340	90.2710	-0.0610
0.7809	3.9879	3.9995	-114.9292	121.7651	23.0103
3.5516	-1.7078	3.5333	183.2275	-64.0259	6.2866
-3.7930	-3.2654	0.5029	195.9229	-179.5044	11.0474
-1.0378	-1.6223	-0.3191	41.6870	66.5283	-11.9629
1.4143	-0.0587	1.1835	-111.0840	78.6743	-23.0103
0.5293	0.2750	1.6550	-131.6528	-13.6108	-10.8643
-1.1931	0.2599	1.5189	-102.4780	-72.0825	-34.1187
-1.4442	0.1881	1.6378	-64.1479	-38.7573	-31.3721
-0.7924	0.3828	2.0546	-37.0483	-8.6060	13.9160
-0.5348	0.2013	2.0458	-10.0098	4.3945	40.5273
-0.3936	-0.2026	1.6879	10.8643	14.2822	37.4146
-0.1842	-0.2966	1.4956	12.0239	19.4702	28.6255
0.0560	-0.3870	1.4374	10.4370	18.3716	25.1465
0.1595	-0.5225	1.3110	15.1978	9.7656	22.2778
0.1182	-0.6249	1.1874	16.4185	3.5400	17.1509
0.1019	-0.5555	1.1588	8.9111	-2.3804	11.5967
0.0793	-0.4835	1.1267	1.7090	-6.9580	6.7749
0.0166	-0.4348	1.0675	-0.9155	-9.7656	2.5024
-0.0289	-0.3938	1.0128	-3.8452	-12.8174	-2.5024
-0.1522	-0.3175	0.9856	-8.3008	-14.0381	-6.0425
-0.1788	-0.2568	0.9808	-11.1084	-10.1318	-5.4321
-0.1628	-0.1647	0.9967	-11.6577	-6.0425	-2.0752
-0.1409	-0.1189	1.0308	-9.5215	-5.0049	1.5869
-0.1410	-0.0353	1.1139	-6.2866	-5.0049	3.7231
-0.1541	-0.0110	1.2112	0.6104	-7.4463	4.3945
-0.1731	-0.0834	1.2391	12.5122	-9.7046	6.9580
-0.1577	-0.1414	1.2273	21.9727	-10.1929	8.0566
-0.1270	-0.1976	1.2124	27.5269	-10.0708	7.6294
-0.1227	-0.2083	1.2090	29.7241	-10.4980	5.7373
-0.1294	-0.2057	1.1920	32.1655	-12.3291	3.1128
-0.1423	-0.2129	1.1492	36.3159	-13.7939	1.2817
-0.1549	-0.2288	1.0853	40.5884	-14.6484	0.3052
-0.1675	-0.2396	1.0212	43.4570	-14.4653	0.3052
-0.1619	-0.2437	0.9641	44.5557	-13.0005	0.6104
-0.1401	-0.2389	0.9175	45.1050	-11.4136	0.6714
-0.1329	-0.2556	0.8912	45.1660	-10.6201	0.1221
-0.1392	-0.2627	0.8774	43.7622	-9.6436	-1.4648
-0.1509	-0.2521	0.8578	42.1143	-8.9111	-3.1128
-0.1652	-0.2614	0.8347	42.1753	-8.1177	-3.0518
-0.1636	-0.2762	0.8127	42.5415	-6.9580	-2.2583
-0.1595	-0.2841	0.8008	41.7480	-5.9204	-2.4414
-0.1682	-0.2943	0.7863	40.0391	-4.3945	-2.8076
-0.1633	-0.3004	0.7714	37.9028	-3.0518	-2.6855
-0.1542	-0.3041	0.7643	35.4614	-2.3804	-2.3804
-0.1495	-0.3118	0.7662	33.0811	-2.0142	-2.9297
-0.1499	-0.3113	0.7664	31.1890	-1.2207	-3.6621
-0.1567	-0.3040	0.7860	30.6396	-1.2817	-4.0283
-0.1718	-0.3163	0.8026	29.8462	-0.8545	-4.2725
-0.1937	-0.3187	0.8065	28.8086	0.1221	-5.1880
-0.2152	-0.3138	0.8036	27.7100	0.5493	-5.9204
-0.2344	-0.3113	0.8096	26.0620	0.3662	-5.9814
-0.2417	-0.3008	0.8165	24.1699	-0.2441	-5.2490
-0.2598	-0.2881	0.8113	22.6440	-1.0986	-4.1504
-0.2784	-0.2936	0.8042	21.3623	-1.7700	-4.2114
-0.2671	-0.2959	0.7828	20.6909	-1.3428	-2.0752
-0.2434	-0.2950	0.7615	19.2871	-1.2207	-1.7700
-0.2115	-0.3065	0.7367	18.8599	-1.6479	-0.0610
-0.1919	-0.3192	0.7062	16.9067	-1.9531	-0.7324
-0.1804	-0.3278	0.6724	16.9067	-5.3101	0.4883
-0.1859	-0.3391	0.6281	14.4653	-5.3101	-0.3662
-0.1948	-0.3555	0.5834	12.2681	-5.7373	-0.3662
-0.1873	-0.3550	0.5514	6.5918	-3.2959	-0.9766
-0.1772	-0.3383	0.5375	0.7935	-1.9531	-1.5869
-0.1519	-0.3285	0.5109	-3.7842	0.0610	-2.3804
-0.1434	-0.3113	0.4846	-9.2773	0.6714	-4.0283
-0.1221	-0.2905	0.4525	-13.7939	-0.8545	-4.5166
-0.1051	-0.2515	0.4099	-17.4561	-4.0894	-4.2114
-0.0914	-0.2444	0.3451	-20.1416	-6.2866	-4.2725
-0.0968	-0.2500	0.2728	-21.5454	-7.6904	-3.7842
-0.1240	-0.2546	0.1908	-26.7944	-3.7231	-5.6152
-0.1387	-0.2339	0.0769	-32.0435	-0.4272	-7.5684
-0.1541	-0.2006	-0.0643	-39.1235	5.9204	-8.5449
-0.1829	-0.1702	-0.2251	-45.8374	8.9722	-9.5215
-0.1646	-0.1592	-0.4229	-56.3354	14.4653	-9.3994
-0.1146	-0.1969	-0.6376	-70.5566	17.0898	-7.6294
-0.0847	-0.2020	-0.7867	-94.7876	23.3154	-5.7373
-0.0304	-0.1034	-0.8385	-126.2207	32.8369	-4.7607
0.0282	0.0500	-0.7477	-155.7617	46.4478	-2.1362
0.0441	0.2126	-0.5524	-176.8799	62.0117	4.6997
-0.8694	3.9689	3.9995	-106.6284	91.4307	30.6396
3.7247	-1.0266	3.9995	220.4590	49.1943	60.4858
-1.6788	-3.2444	1.0724	281.9824	-209.5947	-13.7329
-2.1113	-2.2507	-0.8737	153.0151	-0.1221	-55.9692
0.5641	-0.8473	0.5420	-45.1050	27.0996	-35.8887
0.3472	0.1432	1.6348	-116.2720	-1.0376	3.1128
-0.7477	0.0928	1.4679	-89.2334	-59.6924	-12.2681
-1.2378	0.0039	1.3921	-52.3682	-40.1611	-29.0527
-0.8928	0.1368	1.7252	-37.3535	-25.8179	-1.9531
-0.6625	-0.0571	1.7179	-19.8364	-8.4229	24.2920
-0.2732	-0.3317	1.3903	-4.9438	9.3384	27.3438
-0.0077	-0.3624	1.2919	-8.5449	14.9536	19.1650
0.1104	-0.4098	1.3429	-10.2539	8.7280	13.4888
0.0577	-0.5023	1.2856	-3.9673	-0.7935	8.7280
-0.0256	-0.5419	1.2192	0.0610	-5.3101	5.1880
-0.0570	-0.4797	1.1990	-0.6714	-6.9580	4.2725
-0.1091	-0.4238	1.1764	-0.9155	-6.8359	3.9062
-0.1759	-0.4034	1.1235	0.6714	-6.0425	3.5400
-0.2050	-0.3950	1.0714	0.9155	-4.2725	4.2725
-0.2092	-0.3688	1.0490	-0.6104	-1.2817	5.1270
-0.1931	-0.3202	1.0497	-3.4180	0.1221	5.4321
-0.1671	-0.2798	1.0652	-7.5684	-0.7324	5.0049
-0.1589	-0.2263	1.0778	-12.0239	-3.9673	3.4180
-0.1921	-0.1686	1.0862	-14.4653	-7.3242	1.7090
-0.1765	-0.1615	1.1173	-13.5498	-7.6904	2.3193
-0.1133	-0.1626	1.1403	-10.3760	-10.4370	4.5776
-0.1743	-0.0330	1.2186	-7.5073	-18.9209	6.6528
-0.2716	-0.0314	1.2827	-0.4883	-24.9023	5.0659
-0.3276	-0.1182	1.2350	14.3433	-19.5313	4.8218
-0.2834	-0.1837	1.1724	26.3672	-11.0474	6.8359
-0.2307	-0.2379	1.1183	31.9824	-5.0659	9.0332
-0.1945	-0.2635	1.0840	32.8369	-3.5400	9.5215
-0.1796	-0.2748	1.0590	31.1890	-4.7607	7.4463
-0.1873	-0.2843	1.0316	28.8086	-6.8970	5.4321
-0.1996	-0.2778	1.0286	26.5503	-9.8267	4.0894
-0.2089	-0.2585	1.0361	24.4751	-10.6201	2.8076
-0.2030	-0.2417	1.0364	25.4517	-10.3149	1.7090
-0.2186	-0.2340	1.0248	28.6255	-9.2163	1.3428
-0.2278	-0.2438	0.9886	34.6069	-8.1787	2.6245
-0.2246	-0.2777	0.9370	40.2832	-6.5918	4.3335
-0.2129	-0.2986	0.8964	43.2739	-5.4932	5.9204
-0.1910	-0.3210	0.8531	43.3350	-4.5776	5.4321
-0.1748	-0.3439	0.8156	41.1377	-2.9907	4.5776
-0.1620	-0.3461	0.7972	37.4756	-2.6855	3.9062
-0.1658	-0.3365	0.7958	33.5693	-2.8076	2.6245
-0.1808	-0.3234	0.7952	30.4565	-2.8076	1.2817
-0.1957	-0.3057	0.7941	28.9917	-1.3428	0.1221
-0.2073	-0.2971	0.8030	29.5410	1.4038	-0.6714
-0.1971	-0.2947	0.8080	30.9448	4.0894	0.0610
-0.1704	-0.3043	0.8053	32.9590	3.9062	2.1362
-0.1669	-0.3207	0.7985	33.2642	1.1597	1.5869
-0.1868	-0.3314	0.7941	32.3486	-1.9531	1.6479
-0.2118	-0.3219	0.7893	28.9917	-5.1270	-0.4883
-0.2257	-0.3081	0.7792	26.4893	-7.1411	-1.1597
-0.2299	-0.3071	0.7527	25.2686	-8.3008	-1.2207
-0.2256	-0.3162	0.7192	23.7427	-8.4839	-0.6714
-0.2120	-0.3181	0.6854	21.5454	-8.4839	-0.2441
-0.1952	-0.3108	0.6597	19.3481	-8.3618	0.1831
-0.1912	-0.3068	0.6290	19.2871	-8.7280	1.2817
-0.1949	-0.3124	0.5917	19.9585	-8.7891	2.0752
-0.1880	-0.3400	0.5277	20.0195	-7.7515	1.8921
-0.1713	-0.3821	0.4425	17.6392	-6.1646	1.7090
-0.1473	-0.4235	0.3447	11.0474	-4.5776	1.7700
-0.1133	-0.4292	0.2710	0.6714	-3.9673	1.7090
-0.0590	-0.4276	0.2128	-11.2915	-3.5400	0.6714
0.0148	-0.4003	0.1453	-22.7661	-4.6997	-0.3052
0.0310	-0.3805	0.0626	-30.9448	-7.3242	-2.7466
-0.0187	-0.3765	-0.0608	-36.4990	-7.6904	-5.4932
-0.0702	-0.3680	-0.2061	-43.6401	-3.9673	-6.8359
-0.0844	-0.3051	-0.3633	-54.9316	5.9204	-9.0332
-0.1006	-0.2592	-0.5726	-67.8711	19.2871	-10.8032
-0.1261	-0.2177	-0.7662	-84.9609	34.4849	-9.8877
-0.1215	-0.0999	-0.8779	-109.1309	48.6450	-7.3853
-0.0780	0.0823	-0.9056	-136.5967	59.5093	-2.6245
-0.0349	0.1893	-0.8644	-162.7808	67.3828	3.2349
-0.0035	0.2938	-0.7482	-188.1104	72.8149	7.4463
-0.7043	0.9806	3.9995	-202.4536	77.5146	12.6343
0.2809	3.8225	3.9995	20.0195	88.7451	49.2554
1.2726	-3.9995	2.3109	297.6074	-129.3335	5.2490
-3.1334	-2.3831	-0.5176	126.4038	-27.0996	-37.9028
0.7543	-0.4032	0.5857	-81.7871	56.6406	-48.2788
0.8450	0.0991	1.3838	-120.7275	21.9727	-10.1929
-0.6836	0.2094	1.1968	-107.0557	-57.5562	-23.0713
-1.2467	0.1512	1.4012	-74.8291	-48.5840	-36.0718
-0.7664	0.2502	1.9742	-51.2695	-21.7896	0.9155
-0.7758	0.1295	2.0059	-31.8604	-16.4795	25.2686
-0.7218	-0.0745	1.6816	-14.9536	-1.2207	19.4702
-0.3047	-0.1027	1.5360	-10.9253	13.3057	19.2261
-0.0245	-0.2281	1.4652	-4.6387	15.0146	21.4844
0.0251	-0.4070	1.3400	6.4087	9.3994	14.8315
0.0116	-0.4583	1.2512	13.0615	3.3569	9.0332
0.0342	-0.4600	1.1996	13.9160	-0.6104	8.6060
-0.0037	-0.4396	1.1293	12.2681	-2.9297	6.3477
-0.1021	-0.4005	1.0641	9.7046	-4.0283	2.8687
-0.1837	-0.3595	1.0079	6.1035	-1.2207	0.8545
-0.2158	-0.3099	0.9838	2.3193	3.5400	1.1597
-0.2209	-0.2485	0.9980	-1.5259	8.3618	1.8921
-0.2028	-0.1902	1.0181	-3.6011	10.1929	3.9062
-0.1672	-0.1451	1.0400	-4.8218	9.3994	7.1411
-0.1429	-0.1095	1.0565	-5.7373	7.3853	8.7891
-0.1273	-0.0997	1.0638	-5.3101	5.4932	9.9487
-0.1033	-0.1016	1.0690	-4.6997	3.6621	11.1084
-0.0957	-0.1266	1.0562	-4.3335	1.9531	11.5967
-0.0985	-0.1675	1.0288	-5.6763	-0.1221	12.1460
-0.1304	-0.0077	1.1089	-9.7046	-5.9204	14.8926
-0.1908	0.0022	1.1931	-6.8359	-11.9629	12.6953
-0.2349	-0.0881	1.1654	6.4697	-6.6528	11.0474
-0.1892	-0.1599	1.1111	17.2119	-0.5493	11.5967
-0.1232	-0.2119	1.0714	21.2402	4.0283	12.0239
-0.0713	-0.2329	1.0466	21.4233	3.8452	10.3149
-0.0652	-0.2524	1.0314	20.2637	-0.6104	7.2021
-0.0931	-0.2651	1.0221	17.7612	-5.1880	3.5400
-0.1235	-0.2454	1.0229	15.3198	-9.1553	1.4648
-0.1534	-0.2268	1.0343	14.1602	-10.8643	0.0610
-0.1694	-0.2269	1.0365	15.9912	-10.9863	-0.6104
-0.1764	-0.2290	1.0304	18.4937	-9.3384	-1.2207
-0.1863	-0.2238	1.0201	21.7896	-7.7515	-1.8311
-0.1765	-0.2172	0.9937	25.8789	-5.3101	-2.5635
-0.1741	-0.2250	0.9427	30.7007	-3.1128	-3.0518
-0.1719	-0.2429	0.8918	34.3018	-1.5869	-3.2349
-0.1628	-0.2538	0.8467	34.6069	-0.6714	-3.4180
-0.1564	-0.2502	0.8223	32.1655	-1.4038	-3.5400
-0.1730	-0.2380	0.8306	27.5269	-1.6479	-3.9062
-0.1830	-0.2190	0.8583	24.5972	-1.7090	-2.9297
-0.1876	-0.2214	0.8701	23.3765	-0.7935	-3.0518
-0.2015	-0.2230	0.8800	23.0103	0.6714	-3.1738
-0.2045	-0.2147	0.8983	23.0103	0.9766	-2.2583
-0.1967	-0.2216	0.8966	24.3530	0.3662	-0.9766
-0.2080	-0.2356	0.8884	26.1230	-1.8921	0.2441
-0.2054	-0.2454	0.8802	27.3438	-4.0894	0.1221
-0.1919	-0.2493	0.8646	28.0151	-4.7607	0.0610
-0.1902	-0.2662	0.8423	29.2358	-5.3711	0.1831
-0.1910	-0.2777	0.8160	29.4800	-5.0659	-0.6104
-0.1895	-0.2910	0.7933	28.3203	-3.6621	-1.7090
-0.1858	-0.2917	0.7788	26.4893	-2.8687	-1.8311
-0.1837	-0.2997	0.7589	24.1699	-1.5869	-2.8687
-0.1858	-0.2952	0.7429	21.9116	-1.2817	-3.2349
-0.1920	-0.2932	0.7152	20.4468	-2.3193	-3.2349
-0.1927	-0.2916	0.6710	19.1650	-3.3569	-2.3193
-0.1777	-0.3013	0.6262	17.3950	-4.7607	-1.0986
-0.1443	-0.3029	0.5718	14.8926	-5.9204	0.1831
-0.0852	-0.3296	0.4906	12.6343	-7.5073	1.1597
-0.0304	-0.3588	0.3854	10.0098	-8.8501	0.7324
0.0079	-0.3732	0.2596	6.0425	-9.8267	-1.0376
0.0140	-0.3834	0.0970	1.7090	-9.8877	-3.2349
-0.0392	-0.3865	-0.0963	-4.7607	-7.3242	-6.1646
-0.1511	-0.4167	-0.2968	-17.0288	0.1221	-8.3618
-0.2386	-0.4127	-0.4735	-38.2080	14.9536	-8.7891
-0.2281	-0.3140	-0.6099	-63.9038	33.5693	-6.7139
-0.1837	-0.1951	-0.7091	-85.6934	48.6450	-3.0518
-0.1219	-0.0919	-0.7858	-102.4780	57.4951	3.1738
-0.0338	-0.0078	-0.8401	-118.1641	56.8237	9.2163
0.0209	0.0587	-0.8584	-135.3760	49.8047	13.7329
0.0355	0.1345	-0.8289	-157.8369	42.6636	18.4937
-0.1039	1.0310	2.8535	-182.4341	44.7388	23.0103
0.0498	3.9995	3.9995	5.0659	-19.1650	53.8940
0.8419	-3.9995	1.9948	337.8906	-14.2822	32.7148
-1.3788	-3.1130	-0.3656	165.7104	55.3589	2.3193
1.3462	-0.2305	0.5444	-127.3193	45.5933	-40.7104
0.9017	0.2521	1.3561	-166.1987	-33.9355	-52.9175
-0.7549	0.1307	1.0585	-140.7471	-93.2617	-46.3257
-1.4103	0.3346	1.2727	-118.3472	-76.4160	-41.7480
-1.0272	0.5535	1.7933	-83.6792	-29.3579	-4.4556
-0.5941	0.3174	1.9086	-41.1377	-0.4272	32.4097
-0.4773	0.0438	1.7145	-23.0713	6.5308	32.0435
-0.2976	-0.0658	1.6672	-26.3672	8.7891	20.4468
-0.1323	-0.1047	1.6310	-27.7100	11.1694	12.2681
0.0385	-0.2587	1.4884	-18.7988	12.0850	11.3525
0.1390	-0.3223	1.3744	-12.0239	8.1177	11.3525
0.1876	-0.3242	1.3362	-10.9863	-2.7466	8.1177
0.1102	-0.2750	1.3208	-12.7563	-16.7847	3.6621
-0.0104	-0.2600	1.2726	-11.5356	-25.4517	0.5493
-0.1226	-0.2231	1.2151	-8.3008	-25.8179	-0.4883
-0.1956	-0.1847	1.1390	-4.9438	-20.2026	-0.5493
-0.2509	-0.0271	1.1525	-3.5400	-9.8267	-2.3193
-0.2864	-0.0005	1.2051	2.8076	0.7935	-0.9155
-0.2664	-0.0432	1.1814	11.9629	13.2446	6.2256
-0.0632	-0.0164	1.2550	15.9912	19.2261	10.3760
0.0431	-0.0200	1.3152	20.0195	6.5308	10.3149
-0.0178	-0.0542	1.3186	24.6582	-11.6577	8.1177
-0.1029	-0.0656	1.3167	28.3203	-28.9917	5.6763
-0.1880	-0.0785	1.2943	32.7759	-35.4004	3.4180
-0.2345	-0.1147	1.2460	39.3066	-31.1890	3.4180
-0.2462	-0.1669	1.1664	45.0439	-20.5688	4.1504
-0.2051	-0.2074	1.0809	47.0581	-8.7280	5.6152
-0.1263	-0.2198	1.0209	45.5322	-0.3662	6.3477
-0.0825	-0.2056	0.9790	43.6401	2.1362	4.6997
-0.0737	-0.1929	0.9346	42.3584	-1.0986	1.9531
-0.0851	-0.1803	0.8953	41.2598	-5.4321	0.6104
-0.1058	-0.1722	0.8707	40.7715	-9.0942	-0.4883
-0.1313	-0.1763	0.8455	41.1377	-10.9863	-1.2207
-0.1298	-0.1809	0.8187	40.8325	-10.2539	-1.4038
-0.1479	-0.1910	0.8103	40.1611	-8.6060	-1.8311
-0.1617	-0.1907	0.7959	39.8560	-6.2256	-2.7466
-0.1556	-0.2000	0.7732	40.7715	-3.4790	-3.6011
-0.1483	-0.2244	0.7555	41.5039	-2.0142	-3.6621
-0.1542	-0.2362	0.7413	40.8936	-2.9297	-4.4556
-0.1857	-0.2231	0.7323	39.3677	-5.0049	-4.8828
-0.2223	-0.2177	0.7252	38.5132	-6.2866	-4.6997
-0.2329	-0.2346	0.7202	38.0859	-6.0425	-2.5024
-0.2130	-0.2400	0.7190	36.3770	-4.5776	-0.4883
-0.1853	-0.2515	0.7234	34.3628	-3.4180	0.1831
-0.1772	-0.2517	0.7451	30.8838	-2.0142	-0.7324
-0.1847	-0.2427	0.7576	27.4048	-0.8545	-2.3193
-0.2007	-0.2407	0.7587	24.9023	0.7935	-3.9062
-0.2080	-0.2527	0.7589	22.9492	2.9297	-4.8218
-0.1943	-0.2451	0.7634	21.9116	4.1504	-4.8218
-0.1799	-0.2335	0.7720	22.8271	2.3804	-4.1504
-0.1796	-0.2424	0.7687	24.7803	-0.0610	-4.1504
-0.1863	-0.2572	0.7512	25.8789	-2.3193	-5.4932
-0.1941	-0.2845	0.7107	27.0996	-5.7373	-5.3101
-0.2003	-0.3010	0.6628	24.4141	-5.7983	-5.2490
-0.1986	-0.2991	0.6251	19.6533	-5.9814	-4.9438
-0.2059	-0.2882	0.6033	14.2212	-5.7373	-4.6997
-0.2062	-0.2800	0.5717	10.7422	-4.9438	-4.2114
-0.1705	-0.2776	0.5386	7.3242	-2.1973	-5.1270
-0.1177	-0.2971	0.4835	6.5918	-0.8545	-3.7842
-0.0616	-0.3119	0.3955	5.0659	-2.7466	-5.2490
-0.0210	-0.3486	0.2777	1.9531	-3.7231	-5.7373
-0.0385	-0.3657	0.1418	-1.7700	-8.1787	-6.8359
-0.1213	-0.3621	0.0032	-12.5122	-5.0659	-9.3994
-0.1642	-0.3575	-0.1475	-25.5127	1.4038	-9.0942
-0.1487	-0.3149	-0.2999	-44.8608	16.2964	-8.4839
-0.1061	-0.2466	-0.4133	-64.8193	29.7241	-6.9580
-0.0411	-0.1683	-0.4854	-82.8857	39.0015	-4.8218
0.0586	-0.0917	-0.5424	-97.1069	41.3208	-0.7935
0.1078	-0.0341	-0.5669	-108.0933	37.3535	4.8828
0.0839	0.0038	-0.5736	-118.7744	33.9966	7.4463
0.0308	0.0504	-0.5375	-131.3477	38.0249	7.8735
-0.0167	0.1632	-0.4126	-147.8882	52.6733	10.9863
-0.7471	1.4371	3.9995	-150.0244	74.1577	18.0054
-0.2310	3.5729	3.9995	75.0122	93.6890	58.9600
2.0941	-3.9967	2.3876	327.5146	-82.5195	31.5552
-2.7347	-2.3956	-0.9384	172.3022	-37.4756	9.7046
0.1659	-1.0875	0.2946	-64.6973	40.3442	-26.5503
0.5525	0.1205	1.4268	-174.9878	35.0952	-25.3906
-0.3209	0.2904	1.4032	-171.6919	-26.3672	-23.6816
-1.2224	0.3551	1.4318	-139.0381	-46.9971	-24.5361
-0.9840	0.5647	1.8895	-103.1494	-21.9116	3.6011
-0.4249	0.3962	2.0875	-54.3213	8.1177	39.3677
-0.1859	-0.0542	1.9392	-19.4702	24.1699	45.3491
0.0010	-0.1962	1.7836	-17.8223	16.3574	31.7383
0.0476	-0.1128	1.7871	-22.7051	3.1128	18.2495
0.1421	-0.2628	1.6545	-11.2915	-1.0376	14.4043
0.1500	-0.3640	1.4906	1.2207	-8.7280	9.8267
0.0623	-0.3651	1.4292	6.9580	-18.3105	3.6011
-0.0227	-0.3425	1.3796	12.0239	-24.5361	-0.9766
-0.0948	-0.3280	1.2902	18.7378	-23.9258	-3.1128
-0.1566	-0.3085	1.1766	23.4375	-19.8364	-5.2490
-0.2114	-0.2682	1.0696	24.8413	-14.8926	-6.2866
-0.2185	-0.2500	1.0063	22.9492	-8.9111	-5.6152
-0.1927	-0.2279	0.9897	19.3481	-3.3569	-6.4697
-0.1420	-0.1631	1.0195	14.4653	-0.1221	-7.2021
-0.1285	-0.0903	1.1205	11.5967	-2.0752	-6.7139
-0.1091	-0.0630	1.2029	15.1978	-9.5215	-4.5166
-0.1371	-0.0746	1.2349	21.7896	-17.7612	-2.2583
-0.1461	-0.0947	1.2308	28.7476	-23.7427	-0.4883
-0.1581	-0.1095	1.2109	33.5083	-26.2451	-0.1221
-0.1793	-0.1190	1.1960	36.5601	-26.5503	-0.4883
-0.1958	-0.1218	1.1669	38.4521	-23.2544	-2.3804
-0.1857	-0.1218	1.1198	40.8936	-19.3481	-3.9062
-0.1718	-0.1317	1.0726	42.4805	-18.1885	-3.6011
-0.1595	-0.1288	1.0266	43.8843	-20.0195	-2.5635
-0.1527	-0.1323	0.9796	45.6543	-23.3765	-2.1973
-0.1592	-0.1450	0.9292	46.7529	-25.8789	-1.7090
-0.1608	-0.1587	0.8928	46.2646	-26.6724	-1.2817
-0.1752	-0.1647	0.8750	45.1660	-25.5127	-1.0986
-0.1769	-0.1716	0.8612	44.3115	-22.2168	-0.7324
-0.1724	-0.1991	0.8348	44.3115	-17.3340	-0.5493
-0.1658	-0.2195	0.8077	43.2129	-12.5122	-0.6714
-0.1694	-0.2368	0.7866	40.7715	-9.1553	-1.7700
-0.1809	-0.2405	0.7784	37.1704	-6.5918	-2.8076
-0.1913	-0.2389	0.7777	34.1797	-5.7983	-2.4414
-0.1973	-0.2329	0.7792	31.2500	-5.0049	-1.7700
-0.1912	-0.2303	0.7874	30.0293	-4.6997	-0.3052
-0.1741	-0.2375	0.7914	30.0903	-5.4932	1.0376
-0.1643	-0.2522	0.7941	30.9448	-6.7749	2.5024
-0.1477	-0.2676	0.7946	31.3110	-7.6294	3.7231
-0.1409	-0.2819	0.7921	30.8228	-7.9346	3.3569
-0.1616	-0.2936	0.7925	30.4565	-7.8735	2.6855
-0.1808	-0.3075	0.7792	30.2124	-5.9204	0.3052
-0.1854	-0.3182	0.7767	28.5645	-2.1362	-2.6855
-0.1957	-0.3256	0.7788	25.8789	1.9531	-4.8218
-0.1963	-0.3295	0.7855	21.4844	5.9814	-8.1177
-0.1995	-0.3104	0.7992	17.6392	7.3242	-10.8643
-0.2024	-0.2800	0.8275	15.3809	6.8359	-11.3525
-0.2035	-0.2506	0.8562	15.3809	3.8452	-9.5825
-0.1980	-0.2421	0.8619	18.1885	-0.1831	-7.4463
-0.1953	-0.2413	0.8541	22.1558	-2.9297	-6.5918
-0.1948	-0.2600	0.8230	26.6113	-4.6997	-6.7139
-0.1965	-0.2887	0.7699	29.2969	-5.1880	-6.6528
-0.2031	-0.3248	0.6979	28.6865	-3.7842	-6.8970
-0.2118	-0.3608	0.6306	24.6582	-1.4648	-6.4697
-0.1953	-0.3492	0.5890	17.0898	0.3052	-5.7983
-0.1740	-0.3458	0.5591	8.9722	2.1362	-5.3711
-0.1534	-0.3340	0.5336	1.9531	2.5024	-5.6152
-0.1327	-0.3164	0.5039	-2.6245	0.4883	-5.7983
-0.1179	-0.3094	0.4581	-4.8828	-3.2349	-5.7373
-0.0988	-0.3019	0.3966	-6.4697	-7.5073	-5.7373
-0.1066	-0.2842	0.3088	-7.2021	-12.0239	-6.0425
-0.1180	-0.2927	0.1730	-7.9956	-12.6343	-6.1035
-0.0945	-0.3213	0.0126	-10.2539	-8.9111	-4.4556
-0.0411	-0.3069	-0.1477	-18.6157	-1.2817	-4.6997
-0.0143	-0.2942	-0.3442	-28.2593	6.2866	-7.0190
-0.0084	-0.3076	-0.5273	-42.6636	12.3291	-13.0615
-0.0830	-0.2615	-0.6561	-62.4390	13.3057	-17.8223
-0.2209	-0.1582	-0.7346	-87.4023	18.2495	-19.3481
-0.3043	-0.1141	-0.7710	-115.9668	33.2642	-16.7236
-0.2863	-0.0199	-0.7202	-147.6440	56.4575	-9.1553
-0.2010	0.1487	-0.5759	-179.6875	83.0688	-4.5776
-0.1023	0.3652	-0.3381	-202.9419	104.9194	0.0000
0.3136	3.5424	3.9995	-163.8794	101.4404	22.4609
1.8522	1.3099	3.8436	195.0684	9.6436	53.3447
-0.5701	-3.9995	0.6963	375.8545	-53.3447	24.3530
-1.0819	-1.9435	-0.7104	145.3247	3.2959	-9.4604
1.0931	-1.2788	0.6688	-75.2563	19.4702	-32.5317
0.5897	0.0417	1.5287	-181.3354	-39.7339	-40.7715
-0.6453	0.1733	1.4960	-175.1099	-96.9849	-59.8755
-1.5056	0.3018	1.6140	-137.5122	-82.5806	-58.3496
-1.4808	0.7191	1.9912	-98.7549	-55.9082	-16.0522
-1.1003	0.5035	1.9202	-43.8843	-9.4604	26.1841
-0.5404	0.0074	1.6248	-4.0283	30.2124	45.1050
-0.0472	-0.1677	1.5344	-3.1128	34.9121	36.3159
0.0698	-0.2366	1.5221	-12.3291	19.5923	17.3950
0.0686	-0.3567	1.4182	-12.8174	5.4932	6.6528
0.1108	-0.4631	1.3209	-10.7422	-0.7935	3.0518
0.1952	-0.5504	1.2489	-12.3291	-6.7749	-0.3052
0.1296	-0.3130	1.2207	-19.0430	-19.2871	-5.9814
-0.0693	-0.1492	1.2532	-22.2778	-31.7993	-13.7939
-0.3440	-0.0817	1.2288	-10.4980	-29.0527	-14.8926
-0.3690	-0.0443	1.2448	4.0894	-16.9678	-7.5073
-0.2920	-0.0717	1.2365	19.1040	-6.3477	-3.2959
-0.2614	-0.1141	1.2061	30.8838	-0.8545	-1.7700
-0.2136	-0.1166	1.1970	35.4004	-3.7231	0.4883
-0.1971	-0.1157	1.1908	37.2314	-10.6201	3.2959
-0.2067	-0.1343	1.1727	38.3911	-16.7847	3.9673
-0.2217	-0.1412	1.1575	39.4897	-19.1650	4.2114
-0.2146	-0.1376	1.1428	41.0767	-17.4561	5.0049
-0.1931	-0.1555	1.1201	44.4336	-13.4277	6.1646
-0.1813	-0.1851	1.0851	48.4619	-9.7656	6.3477
-0.1606	-0.2030	1.0472	50.9033	-6.8359	4.8828
-0.1309	-0.2098	1.0033	51.5137	-6.2866	3.4180
-0.1239	-0.2120	0.9612	51.5747	-7.8735	2.1973
-0.1573	-0.2086	0.9233	52.0630	-10.7422	0.4883
-0.1909	-0.1984	0.8738	52.2461	-12.5122	-2.3804
-0.2076	-0.1985	0.8296	52.3071	-12.3901	-3.3569
-0.2007	-0.2167	0.7856	51.8799	-10.8643	-2.2583
-0.1996	-0.2451	0.7572	51.0254	-9.8877	-0.4883
-0.2418	-0.2520	0.7394	48.2788	-8.4839	-0.7324
-0.2472	-0.2294	0.7397	43.4570	-5.1270	-1.4038
-0.2428	-0.2383	0.7306	40.7715	-1.0986	-0.9155
-0.2396	-0.2458	0.7272	39.0015	1.7090	0.5493
-0.2356	-0.2505	0.7367	36.4990	2.5024	1.0376
-0.2318	-0.2439	0.7395	33.6304	1.9531	0.7935
-0.2225	-0.2565	0.7455	30.7617	0.4272	1.7700
-0.2091	-0.2668	0.7563	27.8931	-2.8076	2.9907
-0.2092	-0.2642	0.7706	24.4141	-4.8218	1.5869
-0.2264	-0.2611	0.7910	21.7285	-4.8218	0.7324
-0.2253	-0.2617	0.7927	20.5688	-3.4790	0.7324
-0.2156	-0.2637	0.7872	20.3247	-1.0986	-0.1831
-0.2069	-0.2648	0.7731	20.2026	0.7324	-1.4038
-0.2018	-0.2642	0.7544	20.9961	-0.3052	-1.2817
-0.2191	-0.2687	0.7336	21.9727	-2.3804	-2.1362
-0.2432	-0.2771	0.7058	22.2778	-4.5776	-2.5635
-0.2581	-0.2756	0.6779	21.5454	-5.6152	-1.5869
-0.2528	-0.2776	0.6418	20.8130	-6.5308	0.1831
-0.2380	-0.2788	0.5970	18.4937	-6.0425	1.1597
-0.2213	-0.2812	0.5381	14.7095	-5.5542	1.9531
-0.1992	-0.2800	0.4785	10.2539	-5.6763	2.0142
-0.1532	-0.2750	0.4170	5.2490	-6.4087	1.9531
-0.1036	-0.2806	0.3492	1.4038	-7.3242	1.8921
-0.0493	-0.2891	0.2576	-0.4883	-9.2773	1.7700
-0.0177	-0.3092	0.1530	-1.2817	-10.9253	1.0376
-0.0276	-0.3572	0.0126	-1.7090	-9.3384	-0.4883
-0.0543	-0.3981	-0.1409	-4.9438	-4.8828	-1.7090
-0.1019	-0.4028	-0.3129	-14.8926	4.8828	-4.2114
-0.1281	-0.4009	-0.5092	-31.4331	18.7988	-6.7749
-0.1520	-0.4047	-0.6785	-56.5186	35.1563	-8.6670
-0.1591	-0.3235	-0.7588	-89.7827	50.8423	-10.6812
-0.0930	-0.1636	-0.7433	-124.5728	63.6597	-8.4839
-0.0046	-0.0176	-0.6753	-154.5410	70.1904	-7.7515
0.0143	0.0848	-0.5818	-175.1099	71.1670	-5.6152
0.0013	0.1508	-0.4696	-192.1997	72.8149	-5.0659
-0.0117	0.2235	-0.3160	-207.8247	80.3223	-4.0894
0.6016	3.4294	3.9995	-161.8042	79.4678	7.0801
1.4863	1.5292	3.7238	181.8237	-13.9771	15.6250
-0.9332	-3.9995	0.6449	344.3604	-78.9185	10.5591
-1.3645	-1.8472	-0.5585	111.5112	-10.8643	8.7891
1.0591	-0.9763	0.8656	-102.9053	40.2832	-36.4990
0.4177	0.3362	1.5359	-189.1479	-16.1133	-44.8608
-1.1941	0.5037	1.5433	-180.8472	-80.6885	-49.3164
-1.9240	0.5565	1.8010	-134.7656	-45.5322	-40.1611
-1.3630	0.8949	2.1935	-86.5479	0.0000	6.8359
-0.6722	0.4353	1.9796	-25.6348	38.2080	45.7153
-0.1897	-0.0316	1.6554	4.0283	54.4434	49.7437
0.1088	-0.1423	1.5787	-2.1362	40.4663	36.1938
0.1838	-0.2117	1.5038	-8.2397	24.2920	24.4751
0.2451	-0.3341	1.3572	-4.7607	13.1836	18.7378
0.2816	-0.4121	1.2583	-3.2959	1.0986	13.8550
0.2263	-0.3644	1.2158	-5.9814	-13.3667	7.6904
0.1053	-0.3306	1.1687	-5.7983	-23.6816	3.5400
0.0205	-0.3174	1.0643	-2.8076	-25.4517	1.2207
-0.0601	-0.2177	1.0210	-3.8452	-24.8413	-1.8311
-0.1511	-0.1935	1.0020	-4.6997	-21.6064	-3.7842
-0.1964	-0.1729	0.9850	-4.8218	-15.0757	-3.2959
-0.2007	-0.0800	1.0336	-7.3242	-7.5073	-1.8921
-0.1783	-0.0106	1.1130	-5.4321	-2.5635	-0.3052
-0.1465	-0.0214	1.1833	2.9907	-0.1831	2.1973
-0.0675	-0.0170	1.2454	13.8550	-4.6997	3.1738
-0.0684	-0.0564	1.2389	25.1465	-15.3198	1.8921
-0.1353	-0.1033	1.2128	33.9355	-24.9023	-0.2441
-0.2045	-0.1140	1.1885	38.4521	-30.1514	-2.0142
-0.2526	-0.1460	1.1483	40.2832	-27.2217	-2.4414
-0.2449	-0.1696	1.1160	40.2832	-19.9585	-1.2817
-0.2144	-0.1602	1.1012	38.6963	-13.5498	0.0610
-0.1849	-0.1432	1.0892	37.9028	-10.6201	0.3662
-0.1752	-0.1417	1.0602	39.4287	-11.1694	0.1221
-0.1890	-0.1511	1.0358	41.3208	-14.4043	-0.0610
-0.2095	-0.1477	1.0161	41.6870	-17.7002	0.4883
-0.2126	-0.1355	0.9984	41.9312	-19.7144	1.6479
-0.2107	-0.1569	0.9716	43.5181	-19.6533	2.3804
-0.2275	-0.1787	0.9365	45.5322	-18.4326	2.6855
-0.2380	-0.1812	0.9004	46.0815	-15.3198	1.8921
-0.2336	-0.2003	0.8690	45.5322	-11.0474	1.5259
-0.2325	-0.2089	0.8480	44.6167	-8.1787	2.2583
-0.2157	-0.2230	0.8278	43.3350	-7.1411	3.1128
-0.2074	-0.2260	0.8115	40.7715	-6.9580	2.5635
-0.1921	-0.2283	0.8002	38.4521	-8.2397	2.5635
-0.1909	-0.2427	0.8081	35.7666	-9.6436	1.8311
-0.2148	-0.2283	0.8276	32.2876	-9.6436	0.3052
-0.2018	-0.2098	0.8455	30.3955	-8.1177	0.3662
-0.2095	-0.2126	0.8540	30.8228	-5.6763	-0.0610
-0.2120	-0.2213	0.8391	31.3721	-2.5635	-0.7935
-0.2047	-0.2343	0.8162	31.7383	-0.3052	-1.6479
-0.2053	-0.2539	0.7947	31.1890	-0.0610	-2.6245
-0.2229	-0.2650	0.7849	28.8696	-0.8545	-3.9062
-0.2313	-0.2629	0.7904	24.7803	-1.6479	-4.8218
-0.2380	-0.2515	0.8044	21.1182	-2.3193	-5.0049
-0.2330	-0.2469	0.8162	19.4092	-2.8076	-3.6011
-0.2089	-0.2545	0.8186	19.7144	-4.4556	-2.2583
-0.1991	-0.2629	0.8076	20.5688	-6.4697	-1.2817
-0.1927	-0.2629	0.7928	20.8130	-8.1787	-1.2817
-0.2041	-0.2621	0.7703	21.3623	-9.2163	-2.1973
-0.2096	-0.2590	0.7443	22.2168	-9.6436	-3.2349
-0.2125	-0.2689	0.7069	24.1699	-9.5825	-3.2349
-0.2224	-0.2820	0.6598	25.6348	-10.1929	-2.8076
-0.2296	-0.2935	0.5962	25.2075	-9.8267	-3.4180
-0.2250	-0.3239	0.5164	23.4985	-9.0942	-3.1128
-0.1877	-0.3524	0.4343	19.5313	-9.2163	-2.0752
-0.1190	-0.3550	0.3411	13.2446	-10.9253	-0.9155
-0.0233	-0.3827	0.2349	7.3853	-14.8926	0.2441
0.0559	-0.3917	0.1095	1.1597	-20.2637	-1.2817
0.0682	-0.3503	-0.0048	-5.1880	-25.2075	-4.4556
-0.0038	-0.3215	-0.1208	-11.1694	-25.3906	-9.5215
-0.0670	-0.3070	-0.2537	-18.1885	-17.6392	-15.7471
-0.0867	-0.2985	-0.4252	-29.2358	-3.1738	-21.3013
-0.0992	-0.3268	-0.6110	-44.3726	13.3667	-26.0620
-0.1234	-0.3134	-0.7532	-66.8945	28.3813	-30.7617
-0.1200	-0.2408	-0.8359	-94.1772	39.3677	-32.9590
-0.0879	-0.1656	-0.9019	-121.4600	47.7295	-29.7852
-0.0234	-0.0446	-0.9213	-147.0947	53.4058	-24.2310
0.0374	0.1122	-0.8750	-169.3726	60.6689	-19.4702
0.0447	0.2739	-0.7307	-186.5234	71.1670	-16.4795
-0.7745	1.2844	3.9995	-190.0024	90.5151	-12.5732
-1.4290	3.9995	3.9995	99.6094	189.4531	32.9590
3.2981	-3.9938	2.9993	397.0947	-122.7417	45.2271
-3.4755	-2.7068	-1.4143	276.4282	-60.7300	-34.5459
-0.1537	-1.4836	-0.3026	13.6108	26.5503	-74.4629
0.2792	-0.3282	1.4873	-130.9814	58.8989	-23.5596
-0.1208	0.2924	1.7843	-158.6914	-23.4375	-13.7939
-1.2191	0.3195	1.7850	-117.8589	-49.3774	-29.1138
-1.3593	0.3439	2.0236	-71.8994	-18.7378	-11.5356
-0.9750	0.1788	2.0681	-36.8042	8.4229	23.9258
-0.5488	-0.2250	1.7708	-16.7847	39.1846	38.5132
-0.0728	-0.2058	1.6742	-24.7192	45.1660	33.2642
0.1439	-0.1620	1.6718	-32.4097	32.4707	27.5879
0.2080	-0.3080	1.5022	-21.8506	18.6157	22.9492
0.1357	-0.4203	1.3998	-14.4653	4.0894	18.4326
0.0592	-0.3835	1.3627	-15.0757	-9.2163	15.0146
0.0001	-0.3579	1.2983	-14.6484	-13.9160	11.4746
-0.0353	-0.3567	1.2008	-12.3291	-13.3057	9.7046
-0.0482	-0.3739	1.1058	-11.5967	-12.3291	7.7515
-0.1064	-0.2690	1.0242	-15.6250	-14.9536	6.8359
-0.2133	-0.1373	1.0446	-23.4375	-20.8740	6.8970
-0.2644	0.0066	1.1661	-24.1089	-23.2544	7.8125
-0.3008	0.0844	1.2881	-12.6343	-23.3154	9.5825
-0.2888	0.0063	1.2921	7.8735	-15.1367	10.8032
-0.2175	-0.0726	1.2527	24.5972	-7.0190	12.2070
-0.1222	-0.1384	1.2250	32.4097	-3.6621	13.3667
-0.0603	-0.1658	1.2102	34.3018	-6.5308	12.3291
-0.0593	-0.1625	1.2006	34.8511	-13.7329	9.7046
-0.1035	-0.1599	1.1779	36.6821	-20.5688	6.1035
-0.1558	-0.1375	1.1367	40.4663	-23.2544	3.2959
-0.1760	-0.1447	1.0775	45.1660	-21.2402	1.6479
-0.1687	-0.1541	1.0198	50.2319	-18.8599	1.1597
-0.1615	-0.1655	0.9735	53.4668	-17.5171	0.7935
-0.1578	-0.1708	0.9264	54.9927	-16.6626	0.3052
-0.1625	-0.1824	0.8849	56.3965	-17.7612	-0.5493
-0.1631	-0.2108	0.8391	55.9082	-17.7612	-1.7700
-0.1735	-0.2489	0.7906	53.1616	-16.8457	-1.5869
-0.1884	-0.2354	0.7732	46.6919	-15.6250	-2.0142
-0.1823	-0.2245	0.7683	40.1001	-12.3901	-2.9297
-0.1654	-0.2174	0.7684	36.3159	-9.6436	-2.9907
-0.1720	-0.2217	0.7625	34.9121	-8.4839	-3.6011
-0.1902	-0.2443	0.7452	33.5693	-7.6294	-4.8218
-0.1909	-0.2307	0.7400	31.0059	-6.5308	-4.3945
-0.1838	-0.2225	0.7451	29.2358	-6.1646	-4.2725
-0.1960	-0.2433	0.7458	29.2358	-5.0659	-4.5776
-0.1957	-0.2476	0.7452	29.6631	-4.8218	-4.2725
-0.1906	-0.2687	0.7399	29.8462	-4.3335	-4.3335
-0.1960	-0.2742	0.7397	29.2969	-3.6011	-4.3945
-0.2152	-0.2638	0.7505	28.0762	-2.9297	-4.3335
-0.2284	-0.2567	0.7487	27.2827	-0.9155	-4.6387
-0.2371	-0.2595	0.7433	28.7476	0.1221	-4.5166
-0.2524	-0.2615	0.7379	30.2734	-0.1221	-3.7842
-0.2457	-0.2817	0.7294	30.7617	-0.0610	-2.6245
-0.2469	-0.2988	0.7045	29.9072	-0.7324	-1.0376
-0.2401	-0.3057	0.6912	27.5879	-2.5635	0.1831
-0.2305	-0.3088	0.6809	23.8037	-3.6621	-0.4272
-0.2336	-0.3091	0.6609	20.1416	-4.8828	-1.5869
-0.2336	-0.3043	0.6481	16.6626	-5.7983	-1.4648
-0.2247	-0.2994	0.6268	13.7329	-6.4087	-1.9531
-0.2218	-0.2922	0.5967	12.2070	-6.8359	-1.7700
-0.2119	-0.2926	0.5410	10.9253	-6.4087	-3.2959
-0.1691	-0.3119	0.4685	11.3525	-6.8359	-2.3804
-0.1099	-0.3378	0.3821	9.5825	-7.2021	-3.1738
-0.0431	-0.3591	0.2458	7.8735	-10.8032	-4.2725
0.0094	-0.3615	0.0950	3.6011	-15.3198	-5.1270
0.0107	-0.3512	-0.0673	-3.2349	-18.9209	-9.3994
-0.0255	-0.3069	-0.2650	-12.8784	-15.5029	-14.1602
-0.1086	-0.3229	-0.4923	-23.8037	-5.9204	-20.1416
-0.1949	-0.3401	-0.7233	-40.7715	10.3760	-25.7568
-0.2603	-0.3192	-0.8837	-67.4438	30.6396	-28.7476
-0.2562	-0.2045	-0.9333	-100.6470	51.8799	-27.2217
-0.2004	-0.0742	-0.9253	-133.9111	69.2749	-22.3389
-0.1382	0.0654	-0.8374	-162.9028	79.1016	-13.7939
-0.1082	0.2157	-0.6931	-186.5845	82.0313	-6.6528
-0.0754	0.3525	-0.5422	-203.9795	85.6323	0.3052
-0.6244	0.8749	3.7540	-211.3037	91.0034	9.6436
-0.4327	3.9995	3.9995	6.0425	140.4419	50.8423
3.7332	-3.3423	3.4202	332.8247	-123.9014	5.4932
-3.7860	-3.4030	-1.1035	280.4565	-94.2383	-17.9443
-0.2870	-1.7297	-0.7081	12.3901	35.6445	-49.4995
0.8446	-0.3512	1.2198	-168.2129	48.2788	-11.3525
0.2450	0.4720	1.6923	-201.5381	-21.7896	-8.7280
-1.0002	0.4812	1.6770	-155.1514	-75.3174	-28.5645
-1.5593	0.5452	1.8204	-102.4780	-45.8374	-28.6865
-1.1599	0.5757	1.9832	-61.8286	-10.7422	10.3760
-0.6644	0.1152	1.6940	-24.5972	29.8462	33.9966
0.0197	-0.2198	1.5657	-15.0757	44.0674	33.6304
0.1222	-0.0638	1.6057	-29.0527	29.2358	17.9443
0.1193	-0.2197	1.5272	-23.2544	13.4888	9.2773
0.0631	-0.3348	1.4065	-9.3994	4.8828	6.9580
0.0721	-0.3882	1.3518	-3.6621	-1.4038	6.7749
0.0234	-0.3652	1.3389	-4.0283	-10.4370	4.9438
-0.0854	-0.3304	1.2924	-4.1504	-16.6626	-0.3052
-0.2047	-0.3197	1.2064	-2.4414	-18.0054	-3.4180
-0.2684	-0.3003	1.1289	-2.5024	-15.1978	-2.9297
-0.2734	-0.2593	1.0817	-4.6387	-10.4980	-1.7090
-0.2361	-0.2040	1.0609	-8.0566	-5.7373	-0.2441
-0.1520	-0.1945	1.0356	-10.1929	-4.3945	2.6245
-0.1555	-0.0172	1.0823	-14.0381	-10.9253	6.2256
-0.2028	0.1183	1.2489	-15.8081	-20.8130	6.1646
-0.2810	0.1638	1.3202	-3.7842	-24.9634	5.0659
-0.2810	0.0570	1.2972	17.3340	-18.7378	7.2021
-0.2328	-0.0355	1.2344	33.9355	-11.7187	9.0332
-0.1857	-0.0974	1.1884	42.3584	-7.3853	9.5215
-0.1549	-0.1212	1.1584	44.8608	-6.5918	8.3008
-0.1490	-0.1213	1.1217	45.2881	-9.2773	6.2256
-0.1602	-0.1204	1.0881	45.4102	-13.9771	5.0659
-0.1866	-0.1194	1.0425	45.1050	-17.8223	4.3945
-0.1927	-0.1105	1.0166	44.1895	-19.4702	4.0283
-0.1936	-0.1051	0.9844	45.1660	-20.3247	4.1504
-0.1826	-0.1315	0.9381	47.6685	-20.6299	5.3711
-0.1744	-0.1598	0.8960	49.4995	-19.7144	6.4087
-0.1722	-0.1873	0.8599	48.8892	-17.8223	4.2725
-0.1779	-0.1970	0.8286	47.2412	-15.0146	2.3804
-0.1749	-0.2124	0.8177	45.2881	-12.3901	1.5259
-0.1765	-0.2235	0.8219	41.0767	-9.6436	-0.6714
-0.2035	-0.1969	0.8284	37.5977	-9.5215	-3.1738
-0.2299	-0.1740	0.8416	36.3159	-6.6528	-4.0283
-0.2510	-0.1615	0.8409	38.9404	-6.3477	-3.7842
-0.2472	-0.1709	0.8229	42.0532	-5.0659	-0.4272
-0.2328	-0.1871	0.8059	45.3491	-5.5542	1.7700
-0.2356	-0.2084	0.7877	47.2412	-6.3477	2.3804
-0.2351	-0.2212	0.7727	46.1426	-4.4556	2.4414
-0.2341	-0.2452	0.7588	46.0815	-6.7139	2.9297
-0.2499	-0.2739	0.7280	42.5415	-5.6152	1.0376
-0.2513	-0.2689	0.7191	37.3535	-4.5776	1.3428
-0.2542	-0.2688	0.7192	30.8228	-3.1128	0.0000
-0.2490	-0.2686	0.7268	27.0996	-2.9297	0.7935
-0.2472	-0.2412	0.7373	24.0479	-2.2583	1.4648
-0.2469	-0.2323	0.7297	23.9258	-1.9531	0.4272
-0.2473	-0.2395	0.7043	25.8179	-1.4038	-0.1221
-0.2435	-0.2499	0.6709	26.8555	-0.7324	0.7324
-0.2157	-0.2605	0.6342	26.7944	-1.4038	1.4648
-0.1995	-0.2898	0.5826	25.8789	-3.6621	2.9297
-0.1895	-0.3126	0.5159	22.0337	-6.2866	3.4180
-0.1715	-0.3285	0.4543	15.1367	-8.7891	2.3804
-0.1666	-0.3230	0.4055	6.5918	-9.1553	2.0142
