aX	aY	aZ	gX	gY	gZ	
-0.1709	0.9259	0.7061	-43.3960	-42.5415	-50.7202
-0.1757	0.9341	0.6996	-31.2500	-53.5278	-57.1289
-0.1848	0.9421	0.6906	-18.1885	-63.2324	-63.2935
-0.1898	0.9409	0.6836	-4.9438	-70.4346	-70.8008
-0.1752	0.9336	0.6714	9.5825	-78.0640	-77.6978
-0.1498	0.9337	0.6538	23.7427	-83.1909	-83.8623
-0.1174	0.9454	0.6378	37.3535	-90.6372	-88.6230
-0.0889	0.9335	0.5953	51.8799	-98.6938	-88.8062
-0.0588	0.9067	0.5433	67.6880	-108.9478	-84.1675
-0.0563	0.8953	0.5343	82.8857	-124.6338	-77.3315
-0.0697	0.8942	0.5304	102.2339	-144.7144	-69.8242
-0.1023	0.9012	0.4930	126.9531	-162.9639	-64.2700
-0.1333	0.9065	0.4617	157.4707	-180.4199	-56.3965
-0.1560	0.9061	0.4330	191.8945	-194.4580	-49.1333
-0.1708	0.9159	0.3689	230.1636	-208.9844	-41.7480
-0.1725	0.9257	0.2584	267.6392	-227.7222	-35.8276
-0.1680	0.9224	0.1136	300.0488	-252.3193	-35.2783
-0.1549	0.9154	-0.0438	321.0449	-280.0903	-40.1611
-0.2213	0.9386	-0.1329	329.4678	-303.9551	-49.9268
-0.4010	0.9968	-0.1813	336.4258	-318.4814	-59.2041
-0.6554	1.0437	-0.2412	341.6748	-318.6646	-67.8101
-0.8584	1.0302	-0.3167	336.5479	-294.9829	-74.7070
-0.9557	0.9341	-0.3988	317.1387	-253.6011	-80.6274
-1.0365	0.7897	-0.4293	283.5083	-199.3408	-84.2285
-1.0958	0.6869	-0.4032	240.9668	-136.8408	-82.3364
-1.0760	0.6707	-0.3514	195.3125	-77.2705	-76.8433
-0.9702	0.6898	-0.3002	152.2827	-24.8413	-72.1436
-0.8462	0.7087	-0.2627	114.8071	13.1836	-72.1436
-0.7500	0.7167	-0.2095	80.7495	32.5317	-73.5474
-0.7017	0.7294	-0.1251	49.9268	33.0811	-72.0215
-0.6857	0.7417	-0.0537	28.6255	20.8740	-63.7817
-0.6740	0.7343	0.0092	16.4185	1.0376	-53.5889
-0.6736	0.7338	0.0719	9.8877	-21.6675	-42.9688
-0.7151	0.7391	0.1238	5.5542	-43.2129	-36.4990
-0.7773	0.7335	0.1490	4.9438	-62.5610	-30.7007
-0.8242	0.7147	0.1750	2.3804	-71.4722	-26.3062
-0.8199	0.6797	0.1934	0.7324	-74.7681	-21.6064
-0.7786	0.6522	0.1670	-2.6245	-74.9512	-20.4468
-0.7743	0.6320	0.2002	-10.9863	-82.3975	-13.4888
-0.7758	0.5978	0.2203	-13.5498	-67.8711	-12.4512
-0.7744	0.6401	0.2389	-17.7002	-56.6406	-24.4751
-0.7588	0.6584	0.2585	-16.2354	-38.8184	-13.2446
-0.7877	0.6514	0.3143	-11.4136	-31.1279	-3.6621
-0.7959	0.6320	0.3339	-4.8218	-22.0947	-2.7466
-0.8055	0.6492	0.3403	3.7842	-15.3809	-0.8545
-0.8320	0.6599	0.3499	12.1460	-7.0801	4.3945
-0.8306	0.6139	0.3508	18.3716	1.6479	12.0850
-0.7877	0.5519	0.3427	20.1416	7.8125	14.2822
-0.7384	0.5211	0.3300	16.9067	11.4746	14.6484
-0.7020	0.5223	0.3126	11.6577	10.1318	15.6860
-0.6964	0.5352	0.3074	4.6997	6.2866	16.2964
-0.7068	0.5616	0.3097	-1.5259	0.7324	14.6484
-0.7417	0.5925	0.3219	-4.3335	-6.3477	17.8833
-0.7933	0.6067	0.3320	-4.4556	-13.5498	20.5688
-0.8497	0.6068	0.3658	-3.1128	-17.7002	23.9258
-0.8926	0.6058	0.4019	0.0610	-16.1743	28.3813
-0.9064	0.6001	0.4050	4.3335	-8.3008	30.3955
-0.8772	0.5931	0.3766	9.3384	2.9297	34.7290
-0.8304	0.5891	0.3378	11.2915	12.8174	35.5835
-0.7845	0.5848	0.3030	11.4136	15.9302	35.5225
-0.7563	0.5758	0.2784	8.6060	13.7329	33.3862
-0.7583	0.5741	0.2694	4.7607	5.4321	31.0669
-0.7803	0.5797	0.2507	0.9766	-4.8218	29.1138
-0.8124	0.5758	0.2391	-2.0752	-13.4888	28.1372
-0.8545	0.5664	0.2543	-5.5542	-21.1182	28.9307
-0.9104	0.5540	0.2770	-9.0332	-25.1465	31.9214
-0.9524	0.5404	0.2861	-12.8174	-23.9258	35.8887
-0.9623	0.5319	0.2891	-15.8081	-16.9678	41.5039
-0.9426	0.5248	0.2865	-18.5547	-6.6528	47.1802
-0.9016	0.5149	0.2775	-21.3623	4.6387	52.0630
-0.8486	0.5027	0.2623	-24.1699	15.8081	56.5796
-0.7983	0.4962	0.2393	-26.8555	21.9116	59.9365
-0.7621	0.5049	0.2169	-31.1890	24.7192	60.3027
-0.7388	0.5182	0.2048	-33.0811	20.2026	60.4248
-0.7271	0.5073	0.2032	-35.4004	13.2446	58.7158
-0.7374	0.4812	0.2045	-37.6587	4.0283	57.7393
-0.7788	0.4781	0.1986	-39.9780	-2.8076	57.4951
-0.8118	0.4926	0.1949	-42.4805	-6.4087	55.6641
-0.8204	0.4875	0.1920	-44.9219	-6.3477	54.5044
-0.8312	0.4730	0.1965	-48.0347	-3.7842	54.2603
-0.8453	0.4690	0.2020	-51.2085	0.4883	55.6030
-0.8473	0.4795	0.2032	-53.8330	6.7139	57.9834
-0.8169	0.4775	0.2097	-56.8237	12.8784	62.0117
-0.7719	0.4661	0.2173	-59.8755	16.0522	66.4673
-0.7465	0.4590	0.2189	-63.7817	16.7847	69.5801
-0.7437	0.4757	0.2317	-68.3594	13.4888	70.4956
-0.7737	0.5109	0.2344	-70.5566	6.8970	71.7773
-0.8046	0.5325	0.2474	-70.8618	2.0142	73.7305
-0.8224	0.5386	0.2623	-69.9463	-0.2441	74.2188
-0.8280	0.5442	0.2628	-67.7490	1.2817	75.4395
-0.8262	0.5541	0.2712	-65.1855	6.3477	77.6367
-0.8326	0.5592	0.2825	-60.8521	13.7939	81.2378
-0.8127	0.5310	0.2664	-56.0913	24.9023	85.9375
-0.7560	0.4966	0.2460	-55.4810	23.5596	86.7310
-0.7178	0.4733	0.2137	-58.9600	25.5737	90.7593
-0.7141	0.4585	0.2135	-66.1621	26.3062	96.0083
-0.7036	0.4449	0.2112	-76.9043	24.7192	98.6328
-0.7070	0.4204	0.1974	-90.2100	22.8882	102.4780
-0.7395	0.4017	0.2017	-107.4829	21.6064	107.3608
-0.7506	0.3864	0.1818	-126.0376	22.5830	113.8306
-0.7753	0.3967	0.1495	-145.9351	28.9917	120.9106
-0.8203	0.4260	0.1486	-167.6636	40.7104	126.8311
-0.8063	0.4651	0.1890	-188.6597	57.9834	130.7373
-0.7268	0.5092	0.2277	-204.6509	80.1392	132.1411
-0.6411	0.5582	0.2567	-215.5151	102.5391	130.1270
-0.5928	0.5863	0.2277	-223.4497	122.1924	122.8638
-0.5687	0.5854	0.1881	-231.0181	138.8550	114.8682
-0.5181	0.5436	0.1312	-241.8823	152.9541	105.5298
-0.4673	0.5110	0.0720	-260.5591	165.0391	93.3228
-0.3717	0.6064	0.0854	-279.4189	164.2456	79.7729
-0.3717	0.7228	0.2014	-283.9966	170.8374	75.0732
-0.4285	0.7560	0.3228	-284.0576	175.0488	51.8799
-0.4423	0.8062	0.4131	-285.4614	168.8232	39.9170
-0.3864	0.8336	0.4769	-277.7100	184.9976	41.1377
-0.3282	0.8229	0.5319	-257.0190	210.0830	35.7666
-0.2777	0.7744	0.5687	-238.2202	224.9756	31.1279
-0.2772	0.7455	0.6230	-225.8301	220.3979	26.1230
-0.2582	0.7281	0.6733	-216.3696	203.7354	21.8506
-0.2108	0.7297	0.6665	-205.5664	182.1289	17.7002
-0.1825	0.7460	0.6654	-196.8994	159.4238	15.6250
-0.2142	0.7247	0.5951	-187.3779	137.8784	10.9253
-0.2527	0.7150	0.5638	-185.9741	111.0229	-2.6855
-0.2881	0.7827	0.6270	-182.9834	91.3696	-12.0850
-0.3776	0.8854	0.6998	-172.4854	86.6089	-17.5171
-0.4906	0.9441	0.7480	-156.2500	87.5854	-21.0571
-0.5436	0.9307	0.7654	-137.2681	90.6982	-20.5688
-0.5341	0.8826	0.7828	-119.2627	95.7031	-16.9678
-0.5034	0.8567	0.7866	-102.6611	100.2197	-13.7329
-0.4575	0.8502	0.7816	-87.6465	101.7456	-10.6201
-0.4113	0.8483	0.7675	-73.7915	97.8394	-8.2397
-0.3943	0.8470	0.7415	-62.0117	90.9424	-8.8501
-0.3910	0.8401	0.7135	-52.4902	81.4209	-11.9629
-0.3800	0.8291	0.6616	-45.3491	69.5190	-16.1743
-0.3831	0.8217	0.6205	-43.0298	57.4341	-21.3623
-0.4001	0.8344	0.6400	-42.0532	45.9595	-24.2310
-0.4198	0.8663	0.6853	-38.5742	35.9497	-24.2310
-0.4351	0.8840	0.7084	-31.6162	29.7241	-23.3154
-0.4321	0.8743	0.7076	-22.5220	24.9634	-21.7285
-0.4110	0.8521	0.6908	-14.5264	19.8975	-19.7144
-0.4023	0.8395	0.6761	-8.6060	12.2070	-18.3716
-0.4033	0.8325	0.6615	-4.6387	3.8452	-18.4326
-0.4252	0.8375	0.6547	-2.1973	-2.5024	-20.3247
-0.4551	0.8379	0.6470	0.1221	-5.7983	-22.9492
-0.4579	0.8187	0.6364	3.6011	-5.9814	-25.5737
-0.4363	0.7996	0.6262	5.9204	-3.2349	-28.9917
-0.4136	0.7847	0.6091	8.5449	-1.8311	-31.8604
-0.3983	0.7684	0.5925	7.5684	2.2583	-36.2549
-0.3771	0.7522	0.5780	8.4229	2.1973	-38.5132
-0.3536	0.7391	0.5670	5.1270	2.1973	-44.1895
-0.3369	0.7366	0.5573	0.0610	3.7231	-49.4995
-0.3276	0.7407	0.5482	-2.0142	1.4648	-52.4902
-0.3171	0.7448	0.5386	-4.5776	-1.9531	-59.1431
-0.3057	0.7529	0.5328	-10.0098	-1.7090	-66.2231
-0.2976	0.7642	0.5345	-13.4888	-3.8452	-70.8618
-0.2860	0.7734	0.5383	-18.3716	-6.1646	-77.9419
-0.2688	0.7776	0.5453	-23.8647	-6.4087	-84.3506
-0.2531	0.7858	0.5538	-30.2734	-5.8594	-90.9424
-0.2423	0.8048	0.5586	-35.7056	-6.5918	-95.8862
-0.2394	0.8422	0.5699	-41.8091	-5.9814	-100.5859
-0.2446	0.8837	0.5824	-46.2036	-8.8501	-106.1401
-0.2548	0.9248	0.5967	-50.7202	-10.7422	-112.3047
-0.2749	0.9655	0.6171	-54.4434	-8.9111	-118.5303
-0.2971	0.9979	0.6390	-53.9551	-5.4932	-122.6196
-0.3087	1.0223	0.6525	-48.6450	-3.8452	-126.8311
-0.3231	1.0305	0.6729	-41.6260	-2.1973	-131.8970
-0.3386	1.0508	0.6776	-34.1187	4.2114	-136.4746
-0.3446	1.0758	0.6628	-24.5361	13.2446	-137.0239
-0.3448	1.1012	0.6470	-11.1694	15.7471	-135.0098
-0.3458	1.1158	0.6537	1.2207	15.6860	-134.5825
-0.3422	1.1320	0.6411	13.3667	19.5923	-132.8735
-0.3282	1.1498	0.6185	27.0996	22.4609	-128.1128
-0.3032	1.1567	0.5992	39.9780	22.0337	-124.7559
-0.2911	1.1685	0.6036	51.0864	18.9209	-123.2910
-0.2855	1.1781	0.6064	63.1714	15.3809	-121.2769
-0.2643	1.1678	0.5952	74.8901	14.0991	-117.9810
-0.2291	1.1472	0.5989	86.6699	10.5591	-109.5581
-0.2070	1.1299	0.5814	98.5718	9.4604	-103.8818
-0.2068	1.1239	0.5608	108.1543	8.1787	-104.1260
-0.1956	1.1011	0.5364	117.2485	6.3477	-94.5435
-0.1940	1.0702	0.5341	126.3428	-1.4648	-81.1768
-0.2135	1.0587	0.5347	133.5449	-6.8970	-69.3359
-0.1981	1.0287	0.5365	140.3809	-6.5918	-60.5469
-0.2782	1.0516	0.5961	150.6348	-6.5308	-54.3823
-0.3743	1.0854	0.6482	167.6025	-3.7231	-42.8467
-0.3297	1.0593	0.6301	191.7114	7.8735	-25.2686
-0.2693	1.0215	0.6262	218.4448	20.5688	-6.1035
-0.2067	1.0042	0.6481	242.0044	31.6772	7.3242
-0.1191	0.9777	0.6746	266.3574	39.2456	17.3340
-0.0292	0.9299	0.6830	291.0767	40.5884	22.3389
0.0232	0.8755	0.6906	311.3403	35.0952	21.0571
0.0491	0.8157	0.6555	330.0781	23.3154	20.2637
0.0844	0.7463	0.6014	343.5669	8.0566	18.7988
0.1299	0.6699	0.5461	349.0601	-10.4370	14.9536
0.1637	0.5784	0.5227	343.8110	-28.6255	7.1411
0.1354	0.4994	0.5515	331.2988	-44.6777	-0.3052
0.0227	0.4543	0.5757	317.9321	-59.6924	-3.0518
-0.0480	0.4003	0.5630	305.9692	-70.8008	-1.4648
-0.0599	0.3317	0.5653	291.9312	-76.7212	3.0518
-0.0487	0.2664	0.5746	276.4282	-77.7588	5.5542
-0.0635	0.2051	0.5853	261.3525	-76.6602	6.9580
-0.1138	0.1500	0.6077	245.7275	-74.2798	6.4697
-0.1536	0.0920	0.5869	230.9570	-70.8618	6.1035
-0.1700	0.0336	0.5541	215.7593	-63.7207	5.1880
-0.1643	-0.0149	0.5574	200.8057	-55.6030	3.9062
-0.1591	-0.0536	0.5486	187.6221	-46.8750	2.8076
-0.1638	-0.0865	0.5371	174.2554	-37.7197	1.1597
-0.1759	-0.1072	0.5337	161.9873	-30.3955	-1.3428
-0.1896	-0.1075	0.5310	152.4048	-24.2920	-3.4180
-0.1914	-0.1049	0.5280	147.7051	-22.2778	-6.1035
-0.2233	-0.1028	0.5476	145.4468	-23.0103	-7.9956
-0.2424	-0.1204	0.5569	144.7144	-21.1182	-10.6201
-0.2357	-0.1525	0.5468	145.5688	-18.1274	-11.1694
-0.2001	-0.1924	0.5052	143.3716	-15.6860	-10.9863
-0.1527	-0.2268	0.4561	136.5967	-16.8457	-11.3525
-0.1321	-0.2382	0.4298	126.6479	-22.1558	-12.4512
-0.1284	-0.2357	0.4331	116.2720	-29.5410	-15.0146
-0.1285	-0.2222	0.4349	107.7271	-36.8652	-16.8457
-0.1749	-0.1982	0.4736	102.7222	-44.5557	-18.6768
-0.2313	-0.1892	0.4841	101.5015	-49.9878	-21.9116
-0.2607	-0.2224	0.4661	101.9287	-50.6592	-24.9634
-0.2506	-0.2897	0.4188	98.8770	-47.8516	-27.1606
-0.2101	-0.3508	0.3535	91.5527	-44.9829	-28.5034
-0.1696	-0.3826	0.3324	76.7822	-40.1001	-30.7617
-0.1439	-0.3910	0.3258	62.3779	-42.7246	-33.2031
-0.1323	-0.3965	0.3190	48.0347	-47.3633	-33.8135
-0.1284	-0.3884	0.3054	29.5410	-49.9268	-38.0859
-0.1492	-0.3700	0.3313	13.9771	-56.7017	-42.7246
-0.2075	-0.3475	0.3722	-0.5493	-60.5469	-48.4619
-0.2689	-0.3370	0.4321	-12.6343	-55.7861	-55.9082
-0.2897	-0.3231	0.4750	-21.9727	-47.7295	-62.5610
-0.2760	-0.3134	0.4984	-26.0620	-40.1611	-64.9414
-0.2375	-0.3147	0.4969	-28.8696	-32.2266	-65.4907
-0.1992	-0.3199	0.5085	-32.6538	-27.2217	-65.2466
-0.1969	-0.3038	0.5399	-39.1846	-25.2075	-66.8335
-0.2253	-0.2620	0.5813	-45.0439	-25.8179	-71.5942
-0.2601	-0.2028	0.5894	-49.4385	-28.4424	-77.6978
-0.2899	-0.1561	0.5874	-53.1616	-31.1279	-84.7168
-0.3085	-0.1315	0.6022	-57.0068	-32.2876	-90.8203
-0.3164	-0.1190	0.6135	-59.6313	-30.7617	-93.6890
-0.3245	-0.1172	0.6261	-57.6172	-31.9824	-94.2383
-0.3204	-0.1276	0.6261	-58.6548	-29.6631	-93.6890
-0.3022	-0.1478	0.6300	-62.0728	-25.0244	-89.7217
-0.3099	-0.1531	0.6412	-64.8804	-26.7334	-86.4258
-0.3628	-0.1488	0.6716	-70.3735	-27.9541	-87.5854
-0.4196	-0.1469	0.6915	-74.5239	-27.0386	-90.2710
-0.4419	-0.1537	0.6799	-75.6226	-21.9727	-89.9658
-0.4222	-0.1615	0.6552	-75.3174	-13.1226	-86.1206
-0.3778	-0.1730	0.6210	-77.8809	-2.3193	-82.2144
-0.3864	-0.1577	0.5186	-85.8765	6.3477	-80.8105
-0.2943	-0.1276	0.4969	-95.0317	10.9253	-82.6416
-0.2706	-0.0554	0.5071	-110.7788	-4.5776	-61.5845
-0.2731	-0.0807	0.4741	-116.3330	-19.3481	-49.8657
-0.2722	-0.1327	0.4370	-123.7183	-20.5078	-70.1904
-0.2861	-0.1382	0.4009	-133.3008	-7.8125	-80.0781
-0.2917	-0.1465	0.3451	-149.7192	6.4087	-71.1670
-0.2485	-0.1653	0.2917	-173.2788	21.3013	-63.1104
-0.1681	-0.1885	0.2325	-205.0781	35.7056	-65.1855
-0.1271	-0.1737	0.1980	-241.7603	49.3164	-78.9795
-0.1172	-0.0941	0.1903	-280.2124	61.5234	-102.9663
-0.1185	0.1057	0.2140	-317.6270	71.1670	-136.1084
-0.1108	0.3391	0.1836	-349.1211	78.8574	-161.8652
-0.0916	0.5701	0.2031	-381.3477	89.0503	-187.3779
-0.0690	0.8359	0.3606	-417.1143	97.2900	-218.6279
-0.0991	1.1174	0.4680	-436.1572	112.6709	-242.7979
-0.1462	1.3936	0.6487	-438.5986	129.7607	-248.5962
-0.1693	1.6000	0.8887	-431.2744	142.0288	-226.1963
-0.3601	1.6962	0.9521	-409.4238	155.8228	-189.5142
-0.2704	1.6743	1.4219	-372.4976	181.9458	-151.3062
-0.3943	1.6295	1.4008	-324.2798	185.2417	-117.0044
-0.4674	1.4381	1.3455	-268.1885	188.9648	-76.1719
-0.3176	1.4261	1.2007	-225.5859	209.4116	-54.4434
-0.0352	1.4316	1.0544	-199.5850	191.8335	-20.5688
0.0934	1.4635	1.0317	-179.2603	164.5508	-7.6904
0.1469	1.4037	1.0242	-167.8467	130.4321	-3.4180
0.1730	1.4608	0.9635	-168.7622	79.8950	-19.4092
0.0684	1.5225	0.8690	-164.0625	41.1377	-18.3716
-0.0796	1.5924	0.9862	-173.9502	-4.0283	-33.8135
0.0101	1.7838	1.2983	-184.8755	-44.8608	-54.1382
-0.0934	2.0848	1.5085	-171.7529	-94.8486	-55.2979
-0.2748	2.0692	1.4844	-136.7798	-146.6064	-28.9307
-0.5094	2.0227	1.3436	-92.7734	-149.1089	-17.7002
-0.5406	1.8883	1.2179	-42.7246	-105.2856	-9.2773
-0.4755	1.8182	1.0826	-6.1035	-56.4575	7.9956
-0.3914	1.6606	0.9424	35.7666	-6.1035	36.0718
-0.2755	1.3961	0.8619	71.9604	30.7007	50.3540
-0.1865	1.1669	0.7292	95.3369	52.4902	43.8843
-0.0980	1.0167	0.5673	116.2109	66.7725	30.7617
0.0250	0.9207	0.4233	134.1553	75.6836	23.0713
0.1641	0.7351	0.3235	145.3857	76.5991	22.0947
0.2297	0.7283	0.3120	145.2026	77.2705	-17.0288
0.2562	0.7396	0.2568	138.9160	73.6084	-51.0254
0.2404	0.6545	0.2469	128.4790	69.2139	-44.8608
0.2311	0.6597	0.2272	111.2061	65.4907	-70.3735
0.2563	0.6560	0.2631	83.0078	37.9639	-67.5049
0.2534	0.6715	0.2565	67.1997	30.4565	-16.6016
0.1801	0.6855	0.2577	51.8799	28.0762	20.1416
0.0739	0.6492	0.2723	33.6304	17.8833	22.0337
-0.0010	0.6287	0.2928	16.1133	5.6152	13.2446
-0.0269	0.6577	0.3214	2.3193	-1.3428	7.0190
-0.0209	0.7236	0.3535	-6.1646	-0.7935	2.5635
0.0023	0.7878	0.3767	-11.3525	6.5308	-0.9155
0.0280	0.8304	0.4049	-15.1367	18.3105	-3.6621
0.0448	0.8590	0.4393	-18.7378	30.2124	-7.0190
0.0414	0.8873	0.4812	-21.5454	39.7339	-10.3760
0.0344	0.9152	0.5144	-22.8882	47.7295	-12.2070
0.0631	0.9352	0.5393	-22.8882	53.1616	-11.2915
0.1104	0.9601	0.5638	-22.7661	55.9692	-9.1553
0.1547	0.9692	0.5900	-22.4609	56.9458	-7.6904
0.1947	0.9656	0.6122	-21.3013	56.5796	-4.7607
0.2252	0.9534	0.6257	-19.8975	53.3447	-1.2817
0.2518	0.9308	0.6333	-17.5171	46.8750	1.4038
0.2839	0.9136	0.6378	-14.8315	37.4146	3.7231
0.3005	0.9105	0.6382	-11.5967	26.1841	5.0659
0.2937	0.9232	0.6385	-7.3853	14.7095	5.6763
0.2694	0.9291	0.6375	-2.3804	4.3945	5.3711
0.2539	0.9095	0.6283	4.5776	-3.5400	4.5776
0.2413	0.9347	0.6290	10.4980	-10.5591	4.2114
0.2257	0.9564	0.6282	15.5029	-17.0898	3.3569
0.2181	0.9388	0.6106	21.5454	-21.2402	3.4180
0.2004	0.9182	0.6022	26.2451	-24.2920	4.8218
0.1472	0.9224	0.6044	30.2734	-27.1606	7.6904
0.1251	0.9282	0.5887	34.3018	-30.7007	14.7095
0.1429	0.9008	0.5747	37.5977	-35.2173	22.9492
0.1786	0.8884	0.5759	39.1235	-39.3677	27.8931
0.1750	0.9032	0.5973	40.1001	-43.2739	32.5928
0.1299	0.9277	0.6130	42.9688	-45.2271	39.0625
0.1295	0.9015	0.6041	47.9736	-45.8374	46.0815
0.1652	0.8635	0.5907	52.4902	-47.6685	50.2319
0.1859	0.8472	0.5782	55.1147	-51.3916	50.1099
0.1836	0.8363	0.5627	55.9082	-56.7017	46.7529
0.1677	0.8212	0.5498	54.9927	-63.1104	41.7480
0.1412	0.8142	0.5437	52.3071	-69.6411	36.5601
0.0973	0.8101	0.5466	49.2554	-74.9512	30.8838
0.0635	0.8057	0.5632	45.5322	-77.2095	26.3062
0.0660	0.8103	0.5933	41.1377	-76.4160	24.8413
0.0640	0.8281	0.6306	38.6963	-73.7915	24.7192
0.0452	0.8394	0.6517	39.4897	-70.4346	25.6958
0.0513	0.8304	0.6406	42.6025	-67.2607	27.7710
0.0704	0.8115	0.6251	45.6543	-67.5659	29.1748
0.0823	0.7960	0.6141	48.6450	-72.8149	28.8086
0.0944	0.7842	0.6145	51.3306	-80.3223	27.8320
0.1761	0.7648	0.6367	54.6265	-88.1958	26.7334
0.0704	0.7301	0.6359	57.9834	-95.5811	29.0527
0.0952	0.6647	0.5330	67.0776	-86.0596	1.4648
0.1445	0.7373	0.6023	59.5703	-111.9385	-15.3198
0.1462	0.8043	0.5789	64.0869	-99.4873	9.5215
0.0787	0.7676	0.5652	64.0259	-106.0181	21.9116
0.0438	0.6991	0.5537	62.7441	-118.2861	21.9727
0.0387	0.6765	0.5399	61.3403	-130.1880	23.3765
0.0382	0.6885	0.5320	60.1196	-142.9443	27.7100
0.0276	0.6853	0.5094	60.3638	-154.2969	28.9917
0.0096	0.6741	0.4940	60.4858	-164.7339	29.6021
-0.0262	0.6525	0.4847	60.4858	-174.6826	30.0293
-0.0681	0.6353	0.4851	61.8286	-181.6406	28.8696
-0.1176	0.6301	0.4752	64.7583	-186.9507	22.6440
-0.1311	0.6451	0.4532	68.4204	-189.7583	21.7285
-0.1340	0.6543	0.4425	71.5332	-193.4204	26.7944
-0.1678	0.6472	0.4454	75.1343	-198.1812	31.9214
-0.2380	0.6432	0.4423	79.5288	-203.4302	33.6914
-0.2942	0.6277	0.4302	85.3271	-205.8716	34.7290
-0.3115	0.6147	0.4147	92.7124	-205.0781	36.1328
-0.3126	0.6129	0.4045	100.2197	-203.0640	36.3159
-0.3118	0.5975	0.3804	108.0933	-200.4395	35.8276
-0.3096	0.5817	0.3407	113.1592	-198.7915	34.7290
-0.3185	0.5503	0.3147	116.2720	-199.8291	33.8135
-0.3586	0.5352	0.3044	118.1030	-202.3315	32.1045
-0.4146	0.5275	0.2994	120.9106	-205.5054	30.9448
-0.4788	0.5205	0.3149	125.9155	-208.1299	29.2358
-0.5343	0.5122	0.3433	132.8125	-209.1675	27.8320
-0.5570	0.4865	0.3362	141.7847	-206.4209	26.8555
-0.5433	0.4641	0.2913	150.8789	-202.1484	24.2310
-0.4832	0.4349	0.2100	156.4331	-201.2939	21.3013
-0.4369	0.4126	0.1542	156.0669	-208.3130	17.6392
-0.4570	0.4014	0.1470	152.7100	-222.9614	12.4512
-0.5005	0.3929	0.1279	149.9634	-241.3330	5.7983
-0.5272	0.3748	0.0583	148.1323	-259.1553	-0.7324
-0.5565	0.3708	0.0247	144.2871	-276.1230	-7.2632
-0.5931	0.3956	0.0015	140.5029	-293.8843	-13.0615
-0.6617	0.4294	-0.0321	139.5264	-308.1665	-22.1558
-0.7247	0.4429	-0.0797	139.9536	-315.1245	-31.4941
-0.7865	0.4736	-0.1349	142.0288	-314.9414	-38.3911
-0.8621	0.5035	-0.1470	145.3857	-310.8521	-42.9077
-0.9202	0.5159	-0.1582	149.4751	-300.8423	-44.3726
-0.9406	0.5035	-0.1720	153.6255	-283.8135	-43.1519
-0.9485	0.4895	-0.2065	156.2500	-264.1602	-41.5649
-0.9303	0.4973	-0.2532	155.7617	-244.3848	-39.6118
-0.9073	0.5033	-0.2765	154.2969	-227.3560	-37.9639
-0.8892	0.5051	-0.2930	151.6724	-212.0361	-36.7432
-0.8671	0.4985	-0.2927	149.5972	-197.3267	-37.0483
-0.8302	0.4727	-0.3177	146.7896	-187.9883	-36.1938
-0.8077	0.4564	-0.3790	139.7095	-180.1758	-39.2456
-0.7925	0.4617	-0.4038	129.8218	-173.5840	-43.5791
-0.7816	0.4628	-0.3755	121.1548	-171.6309	-46.2036
-0.8009	0.4539	-0.3667	111.9995	-170.7764	-47.2412
-0.8361	0.4672	-0.3986	101.0742	-167.2363	-49.1943
-0.8528	0.5055	-0.3812	94.6045	-161.4990	-49.0723
-0.8270	0.5409	-0.3662	91.7358	-154.4800	-46.2036
-0.7854	0.5604	-0.3918	89.7827	-146.1792	-45.4102
-0.7670	0.5736	-0.4231	87.8906	-139.4043	-43.9453
-0.7637	0.5916	-0.4410	86.5479	-134.0332	-43.3350
-0.8251	0.5768	-0.5049	84.6558	-128.8452	-43.5181
-0.9420	0.5020	-0.4869	79.1016	-121.8872	-45.9595
-0.7407	0.5912	-0.5109	68.6035	-108.3984	-44.8608
-0.7465	0.6290	-0.5277	65.0635	-91.8579	-33.9355
-0.7211	0.6501	-0.5334	60.5469	-73.9136	-25.6348
-0.6714	0.6091	-0.5691	52.7344	-55.4810	-21.4233
-0.6919	0.5533	-0.5813	42.4805	-41.0156	-21.7285
-0.7100	0.5547	-0.5660	31.2500	-35.0952	-21.7896
-0.7318	0.5895	-0.5726	20.4468	-33.8135	-20.5078
-0.7655	0.6276	-0.5634	10.0098	-33.3252	-17.0898
-0.8021	0.6675	-0.5551	-0.1221	-31.3110	-11.4136
-0.8251	0.6948	-0.5405	-6.1646	-24.1699	-5.1270
-0.7900	0.6896	-0.5546	-9.8267	-9.1553	1.7090
-0.7245	0.6829	-0.5724	-14.2212	10.1929	7.6904
-0.6670	0.6766	-0.5807	-18.9819	26.7334	13.1836
-0.6422	0.6652	-0.5767	-26.5503	36.8042	14.9536
-0.6251	0.6680	-0.5555	-35.5835	42.2363	12.5732
-0.5833	0.6638	-0.5316	-43.0298	43.9453	8.9722
-0.5566	0.6586	-0.5194	-49.5605	44.1284	5.1880
-0.5913	0.6337	-0.4906	-55.0537	44.3115	0.3662
-0.6367	0.5726	-0.4564	-59.6313	46.1426	-4.4556
-0.6802	0.5419	-0.4297	-65.0024	49.1943	-9.2773
-0.7251	0.5409	-0.4081	-70.6177	53.8940	-15.9302
-0.7424	0.5284	-0.3940	-75.0732	59.9976	-21.7896
-0.7352	0.5154	-0.4015	-79.9561	67.0166	-26.7944
-0.7340	0.5079	-0.4097	-86.9141	74.3408	-31.9214
-0.7648	0.4922	-0.4115	-96.9238	81.7261	-36.4990
-0.7773	0.5012	-0.4066	-106.9336	89.5386	-40.1001
-0.8372	0.5458	-0.3732	-113.4644	95.5811	-40.9546
-0.7758	0.6669	-0.3304	-115.8447	101.0742	-39.6118
-0.7544	0.7130	-0.3181	-113.7085	107.1167	-33.9966
-0.7998	0.6935	-0.2759	-110.3516	115.2344	-26.7944
-0.8285	0.6461	-0.2220	-104.4312	121.5820	-18.0664
-0.8585	0.6152	-0.1982	-98.8770	124.2065	-9.0942
-0.8812	0.5859	-0.1974	-95.2759	124.6338	-0.7935
-0.8743	0.5645	-0.2062	-94.5435	125.6714	6.2866
-0.8413	0.5591	-0.2081	-95.7031	127.5024	12.9395
-0.8025	0.5581	-0.2295	-98.1445	128.6621	18.7378
-0.7671	0.5686	-0.2565	-102.1729	129.0283	22.0337
-0.7117	0.5975	-0.2614	-106.2012	126.4648	23.7427
-0.6914	0.6440	-0.2289	-111.0840	119.9951	24.1089
-0.6914	0.6721	-0.1802	-111.5112	114.1357	22.8882
-0.7187	0.6338	-0.1384	-108.2153	105.1025	23.8647
-0.7629	0.5710	-0.1252	-107.4219	98.8770	21.9116
-0.7993	0.5468	-0.1066	-109.1309	98.3276	17.5171
-0.8016	0.5522	-0.0968	-110.5347	104.6143	14.2212
-0.7786	0.5814	-0.0895	-113.1592	102.5391	12.9395
-0.7314	0.6429	-0.0673	-110.2905	97.9004	13.0615
-0.7284	0.6664	-0.0487	-102.8442	92.8345	16.3574
-0.7742	0.6245	-0.0305	-97.1680	86.9751	18.5547
-0.8099	0.5559	-0.0233	-94.1162	83.6182	21.9727
-0.8229	0.5168	-0.0339	-93.8721	82.1533	24.4751
-0.8162	0.5020	-0.0409	-95.4590	82.7026	25.6348
-0.8148	0.4888	-0.0455	-98.3887	85.5713	28.0151
-0.8391	0.4789	-0.0695	-103.6987	89.9048	31.3110
-0.8658	0.4579	-0.0925	-110.6567	95.2759	35.0342
-0.8959	0.4333	-0.0759	-121.0938	103.4546	40.1611
-0.9290	0.4126	-0.0570	-132.6904	114.8071	46.5698
-0.9524	0.3942	-0.0602	-145.9351	128.4790	52.6733
-0.9459	0.3916	-0.0526	-162.1704	143.7988	56.5796
-0.9128	0.4041	-0.0300	-177.1240	159.7900	56.6406
-0.8679	0.4456	-0.0027	-189.2700	176.3916	54.9316
-0.8057	0.4939	0.0278	-198.6694	190.6128	55.7251
-0.7648	0.5063	0.0552	-205.3223	200.0122	56.0303
-0.7404	0.4836	0.0524	-213.9893	204.7729	54.9316
-0.7245	0.4977	0.0682	-224.6704	206.4209	51.3916
-0.7275	0.5508	0.1371	-229.3701	204.4678	46.8750
-0.7643	0.5955	0.2013	-229.2480	203.6133	41.7480
-0.7957	0.5742	0.2251	-227.0508	211.1816	35.4614
-0.7856	0.5333	0.2048	-227.8442	226.0132	27.5879
-0.7234	0.5160	0.2239	-227.9663	244.2017	19.8364
-0.6702	0.5524	0.2635	-227.5391	260.4980	12.8174
-0.6346	0.5844	0.2761	-227.6001	273.4985	6.3477
-0.6040	0.5902	0.2839	-227.1118	284.4849	-0.6714
-0.5873	0.5922	0.2979	-230.4687	292.2974	-5.3101
-0.5681	0.6147	0.2953	-233.5205	297.7295	-7.0190
-0.4980	0.6399	0.2527	-234.7412	302.9175	-7.6904
-0.3883	0.6635	0.2611	-232.4829	307.5562	-10.4980
-0.3092	0.7089	0.3652	-226.8677	307.9224	-15.2588
-0.2343	0.7419	0.4828	-215.8203	301.8188	-19.9585
-0.1617	0.7319	0.5250	-198.6084	288.0249	-25.1465
-0.1411	0.6968	0.5801	-182.2510	263.0615	-33.7524
-0.1417	0.7020	0.6422	-169.9829	223.9990	-43.5791
-0.1562	0.6611	0.6732	-152.8320	189.7583	-40.9546
-0.2037	0.6584	0.6765	-134.2773	156.9214	-63.6597
-0.1976	0.6818	0.6702	-116.0278	128.6621	-78.7354
-0.1873	0.6967	0.6382	-94.3604	119.8120	-85.0830
-0.1918	0.6768	0.5905	-75.1953	114.8682	-89.2334
-0.2050	0.6471	0.5468	-60.9741	107.3608	-94.4214
-0.2123	0.6305	0.5208	-51.7578	98.1445	-100.4028
-0.2067	0.6250	0.5015	-44.3726	89.7217	-104.9805
-0.1914	0.6211	0.4796	-38.4521	81.8481	-108.2764
-0.1835	0.6173	0.4564	-33.5083	74.5850	-110.5957
-0.1724	0.6191	0.4408	-30.0903	67.6880	-112.4878
-0.1492	0.6212	0.4359	-28.4424	61.8896	-116.0278
-0.1245	0.6268	0.4451	-27.5269	56.2744	-120.0562
-0.1251	0.6301	0.4714	-26.5503	50.1709	-122.4976
-0.1375	0.6327	0.4781	-24.1089	44.6167	-122.6196
-0.1335	0.6216	0.4736	-20.9351	38.2690	-120.1172
-0.1201	0.5907	0.4850	-18.1274	30.0903	-116.8213
-0.1011	0.5710	0.4751	-15.3809	22.2778	-111.2061
-0.0737	0.5616	0.4601	-12.3291	15.0146	-104.1870
-0.0645	0.5625	0.4459	-10.4370	5.9814	-98.9380
-0.0719	0.5795	0.4363	-9.3384	-2.5635	-94.4824
-0.0791	0.6161	0.4309	-8.6670	-11.1694	-90.6982
-0.1132	0.6731	0.4446	-8.4229	-20.8740	-88.8672
-0.1604	0.7394	0.4546	-7.2021	-30.5176	-88.3179
-0.1931	0.7719	0.4548	-5.2490	-37.4756	-88.8672
-0.1937	0.7542	0.4520	-3.4790	-41.4429	-88.3789
-0.1552	0.7063	0.4402	-2.1362	-43.7622	-86.1206
-0.1116	0.6460	0.4302	-1.8311	-47.3633	-82.1533
-0.0773	0.6193	0.4183	-2.4414	-52.8564	-77.3926
-0.0364	0.6069	0.4081	-3.9062	-61.0962	-73.7305
0.0000	0.5859	0.3926	-5.0049	-69.7632	-69.8853
0.0244	0.5720	0.3798	-6.8970	-79.0405	-65.9790
0.0031	0.6206	0.3785	-10.8643	-90.2710	-62.6221
-0.0723	0.7354	0.3813	-15.6860	-101.4404	-61.8286
-0.1332	0.8400	0.3893	-18.9209	-111.3281	-65.6128
-0.2012	0.8867	0.4183	-20.1416	-119.6899	-70.6177
-0.2697	0.8910	0.4271	-18.3716	-123.6572	-71.6553
-0.2909	0.8815	0.4207	-14.2212	-122.6807	-68.4204
-0.2837	0.8928	0.4069	-10.1318	-120.1782	-62.8662
-0.2883	0.9447	0.4175	-6.7139	-117.2485	-58.4717
-0.3535	1.0381	0.4403	-2.3804	-113.8916	-55.9692
-0.4404	1.0984	0.4580	4.7607	-108.2764	-52.0020
-0.5266	1.1667	0.4659	14.8926	-97.4731	-50.4761
-0.6006	1.2054	0.5056	24.1699	-86.9141	-50.8423
-0.6180	1.1996	0.5125	34.9731	-72.5708	-44.1895
-0.6416	1.2145	0.5143	43.0298	-60.5469	-32.5317
-0.6444	1.2371	0.5396	43.0908	-53.1006	-20.3247
-0.6099	1.2372	0.5717	38.0249	-45.6543	-10.4370
-0.5862	1.2327	0.6167	30.8838	-36.2549	-5.1880
-0.5792	1.2227	0.6932	23.8037	-25.6958	-3.7842
-0.5668	1.1996	0.7478	18.2495	-14.8926	-5.6763
-0.5736	1.1736	0.8203	13.3667	-7.0190	-8.4229
-0.5951	1.1506	0.8671	11.8408	-3.7842	-9.8877
-0.6177	1.1416	0.8712	13.1836	-2.0752	-8.9722
-0.6622	1.1259	0.8887	16.7236	0.2441	-3.6011
-0.6838	1.0808	0.9125	23.9258	7.5684	4.8828
-0.6218	1.0143	0.9049	35.0952	22.3389	16.1743
-0.5094	0.9417	0.8879	46.6309	41.8701	25.0854
-0.3918	0.8796	0.8717	55.8472	59.6924	30.2124
-0.2987	0.8236	0.8436	61.7065	72.5098	31.7383
-0.2385	0.7733	0.8202	63.2324	78.3081	31.0059
-0.2096	0.7323	0.8175	60.4858	77.3926	29.2358
-0.1888	0.6906	0.8274	56.3354	72.4487	26.1230
-0.1888	0.6752	0.8396	52.1240	64.3921	22.3999
-0.2094	0.6837	0.8508	48.5229	56.0303	17.6392
-0.2329	0.6860	0.8530	46.5698	48.6450	13.0005
-0.2494	0.6759	0.8529	45.1050	43.0908	11.5967
-0.2679	0.6792	0.8596	42.8467	40.0391	12.1460
-0.2688	0.6877	0.8560	39.4287	38.3911	13.5498
-0.2648	0.6927	0.8451	35.2173	36.3159	16.0522
-0.2614	0.6864	0.8259	30.5176	33.8135	19.0430
-0.2539	0.6697	0.8033	26.1230	31.1279	22.5220
-0.2393	0.6562	0.7860	21.8506	28.8086	26.4282
-0.2303	0.6584	0.7822	17.1509	26.4893	29.0527
-0.2310	0.6703	0.7784	13.1226	24.3530	29.2358
-0.2504	0.6801	0.7682	10.3760	22.7661	27.4658
-0.2770	0.6859	0.7578	8.2397	21.7896	25.0244
-0.2888	0.6960	0.7418	5.7983	23.2544	22.6440
-0.2765	0.7087	0.7318	2.9907	26.2451	20.3247
-0.2440	0.7247	0.7268	0.0000	30.6396	17.4561
-0.2068	0.7357	0.7211	-2.5635	34.7900	13.4277
-0.1783	0.7456	0.7114	-5.4321	37.9639	7.8125
-0.1678	0.7535	0.7010	-8.3008	39.4287	1.5259
-0.1635	0.7567	0.6934	-10.9253	38.2690	-5.2490
-0.1589	0.7568	0.6752	-13.1836	35.2173	-12.0850
-0.1588	0.7655	0.6677	-15.0146	31.9824	-18.2495
-0.1813	0.7966	0.6812	-16.1743	27.9541	-22.6440
-0.2198	0.8461	0.7170	-14.3433	24.6582	-23.1934
-0.2520	0.8892	0.7510	-7.5684	23.9868	-19.5313
-0.2769	0.9277	0.7833	5.1270	26.8555	-13.6108
-0.3036	0.9694	0.8074	23.8037	32.5317	-6.2256
-0.3135	1.0004	0.8298	48.2788	38.2690	2.9297
-0.3271	1.0311	0.8253	75.5615	43.3350	14.5264
-0.2748	1.0089	0.8217	106.5063	48.3398	28.9307
-0.1814	0.9825	0.7721	138.7939	50.2930	42.1143
-0.1284	0.9692	0.7445	168.4570	42.5415	50.2319
-0.1426	0.9706	0.7865	201.8433	34.1187	53.3447
-0.2487	1.0470	0.8911	236.6333	21.1182	47.4243
-0.2666	1.0825	0.8920	281.1890	17.1509	61.5845
-0.1692	1.0261	0.7979	330.6885	15.0757	76.3550
-0.0701	0.9310	0.6930	372.4976	7.8125	73.1201
0.0060	0.8234	0.5959	399.6582	-3.7842	63.0493
0.0768	0.7062	0.4928	407.2876	-19.1040	53.8330
0.1237	0.5452	0.4354	396.1792	-38.4521	47.8516
0.0986	0.3761	0.4429	371.0327	-60.5469	47.9126
0.0427	0.2344	0.4630	339.9658	-80.3833	52.1851
0.0178	0.1329	0.4540	304.8096	-96.9238	53.9551
-0.0321	0.0820	0.4464	265.9302	-111.5112	51.7578
-0.1506	0.0444	0.4757	227.0508	-123.1689	47.2412
-0.2783	0.0281	0.4956	191.4673	-126.8921	44.0063
-0.3595	0.0236	0.5074	161.2549	-120.5444	40.4663
-0.4077	0.0319	0.5048	136.4746	-103.5156	35.4614
-0.4211	0.0449	0.5055	116.2720	-78.6133	29.1138
-0.4021	0.0377	0.5066	99.6704	-51.2085	23.8647
-0.3606	0.0186	0.5126	84.8389	-25.1465	19.6533
-0.3196	0.0087	0.5194	71.4111	-2.9297	15.8691
-0.2861	0.0112	0.5337	61.3403	14.7095	11.8408
-0.2549	0.0061	0.5520	52.9785	25.3906	8.1177
-0.2261	-0.0087	0.5638	45.4102	29.4189	5.4932
-0.2104	-0.0151	0.5758	38.0859	29.7241	3.7231
-0.2057	-0.0164	0.6099	31.4941	27.1606	3.2349
-0.2028	-0.0271	0.6307	25.8789	22.7051	4.2114
-0.1947	-0.0602	0.6401	19.5923	17.3950	5.1880
-0.1671	-0.0859	0.6290	11.2915	12.2681	5.8594
-0.1489	-0.0680	0.6132	2.0752	7.7515	4.6387
-0.1698	-0.0072	0.6497	-3.4790	3.6011	0.1221
-0.2118	0.0482	0.6973	-4.8828	0.3052	-4.1504
-0.2478	0.0723	0.7260	-1.4038	-0.4272	-6.4087
-0.2563	0.0717	0.7264	4.8828	2.3804	-6.8359
-0.2335	0.0614	0.6976	11.5967	7.6294	-5.9814
-0.2089	0.0393	0.6941	16.1743	11.9629	-4.7607
-0.1973	0.0087	0.6971	17.2119	14.4043	-3.7231
-0.1877	-0.0179	0.6913	15.5640	14.2822	-2.9907
-0.1791	-0.0380	0.6849	10.5591	11.5967	-3.4180
-0.1643	-0.0461	0.6621	3.2349	9.8267	-6.8970
-0.1525	-0.0328	0.6420	-5.6763	6.7139	-11.1084
-0.1659	-0.0027	0.6499	-14.9536	0.6104	-13.5498
-0.2079	0.0277	0.6710	-22.2778	-4.9438	-16.4185
-0.2500	0.0576	0.6793	-26.1841	-8.0566	-20.6299
-0.2542	0.0869	0.6791	-27.4658	-8.9111	-23.1934
-0.2468	0.1163	0.6940	-26.8555	-9.5215	-24.0479
-0.2458	0.1378	0.7098	-24.9634	-8.8501	-24.7192
-0.2482	0.1376	0.7080	-23.0103	-7.4463	-25.5737
-0.2465	0.1167	0.6857	-22.7051	-6.4087	-26.4893
-0.2402	0.0934	0.6624	-24.9023	-6.0425	-27.6489
-0.2307	0.0845	0.6407	-29.7241	-7.0801	-29.2358
-0.2202	0.0935	0.6250	-36.8042	-9.2163	-31.0059
-0.2174	0.1223	0.6118	-44.7998	-11.9629	-33.4473
-0.2266	0.1533	0.5902	-51.8799	-13.1836	-37.6587
-0.2465	0.1919	0.5800	-57.6782	-13.1836	-42.0532
-0.2585	0.2201	0.5953	-62.8662	-12.3901	-45.7153
-0.2764	0.1987	0.6089	-69.0308	-13.4277	-48.4009
-0.2638	0.1897	0.6290	-77.7588	-15.6250	-49.8657
-0.2375	0.1367	0.6704	-87.8906	-27.4048	-33.2031
-0.2169	0.1266	0.6830	-95.2148	-33.6914	-36.8652
-0.1801	0.1787	0.6708	-100.2808	-24.4751	-44.3726
-0.1582	0.2373	0.6664	-104.4312	-14.2822	-41.9922
-0.1415	0.2623	0.6554	-108.7646	-12.4512	-36.4380
-0.1281	0.2666	0.6301	-112.5488	-16.6016	-33.4473
-0.1167	0.2877	0.5848	-114.3799	-20.7520	-35.2173
-0.0941	0.3320	0.5240	-114.5630	-22.3999	-40.4053
-0.0826	0.3727	0.4637	-112.2437	-21.9116	-42.2974
-0.0913	0.4152	0.4078	-110.2905	-20.5078	-43.5791
-0.1199	0.4421	0.3663	-110.4126	-18.0054	-44.7998
-0.1758	0.4641	0.3427	-113.1592	-11.8408	-50.9033
-0.1987	0.4563	0.3344	-120.6055	-2.5635	-60.4248
-0.1737	0.4233	0.3336	-132.7515	7.9956	-68.4204
-0.0981	0.3823	0.3346	-147.7051	17.9443	-71.5942
-0.0333	0.3651	0.3700	-166.4429	24.1089	-79.1016
-0.0397	0.3940	0.4275	-185.1807	25.7568	-91.6748
-0.1019	0.4523	0.5275	-199.2187	26.7334	-102.7832
-0.1655	0.5250	0.6659	-210.6934	30.9448	-108.7646
-0.2789	0.6040	0.8081	-216.6138	36.9873	-107.2998
-0.4023	0.6888	0.9442	-215.3320	50.0488	-101.6235
-0.5055	0.8025	1.0853	-211.9141	62.1948	-89.5996
-0.5660	0.9072	1.1921	-200.5615	73.7915	-68.7866
-0.5566	0.9639	1.2849	-184.1431	84.4727	-49.1943
-0.5028	1.0031	1.3473	-164.9170	91.4307	-37.2925
-0.4285	0.9698	1.4121	-145.4468	91.3696	-25.4517
-0.3987	0.9554	1.4838	-127.9907	81.9092	-19.4092
-0.3657	0.9611	1.5378	-110.7178	65.4297	-19.7754
-0.3517	0.9646	1.5675	-91.6748	46.0205	-17.0898
-0.3521	0.9481	1.5630	-73.1812	27.1606	-15.4419
-0.3398	0.7429	1.5945	-59.8145	8.7891	-14.4653
-0.2675	0.5879	1.6006	-47.6074	-9.0942	2.5024
-0.1765	0.7703	1.6528	-41.3818	-25.0244	22.8882
-0.2506	0.8284	1.6182	-37.1094	-57.2510	11.2305
-0.3468	0.9019	1.5747	-32.8979	-91.6138	1.0376
-0.4185	0.9174	1.7153	-29.2969	-127.1362	-34.7900
-0.5862	1.2498	1.7054	-15.6860	-142.3340	-28.6255
-0.5919	1.0422	1.6021	9.5215	-131.6528	-30.5786
-0.5514	0.8508	1.5168	33.5693	-115.2344	-30.5176
-0.5387	0.7183	1.2821	55.1758	-78.7354	-14.0991
-0.4883	0.6331	1.0380	67.6270	-48.2178	6.1035
-0.4736	0.5187	0.8468	68.1763	-19.7144	6.7139
-0.3066	0.5135	0.7839	59.5703	-23.3154	-34.7290
-0.1588	0.5593	0.7075	50.0488	-28.2593	-14.0991
-0.2174	0.6011	0.5972	46.3867	-7.5684	25.1465
-0.3242	0.5665	0.5299	40.1611	0.6104	28.8696
-0.3285	0.5176	0.4924	33.9966	-0.1831	12.2070
-0.2760	0.5049	0.4646	29.7241	-1.7700	-1.2817
-0.2076	0.5107	0.4342	23.9258	1.8921	-12.4512
-0.1421	0.4943	0.4512	17.7002	7.5684	-20.1416
-0.1500	0.5172	0.4686	8.0566	18.6157	-23.9258
-0.1218	0.4568	0.4893	0.1221	32.9590	-38.3911
-0.1351	0.4894	0.5447	-7.8735	43.3960	-61.4014
-0.0906	0.5377	0.5883	-15.7471	47.6685	-68.4204
-0.0902	0.5604	0.6648	-22.0947	41.6260	-50.2930
-0.0640	0.6353	0.6980	-22.6440	49.6216	-51.0254
-0.0146	0.7067	0.7441	-24.9023	38.8794	-39.5508
-0.0500	0.7651	0.7863	-26.9775	29.9072	-4.0283
-0.1384	0.7455	0.8124	-24.8413	19.3481	20.3857
-0.1957	0.6881	0.8134	-19.1040	3.2959	23.7427
-0.1927	0.6724	0.7994	-13.1836	-10.7422	18.6157
-0.1770	0.6875	0.7769	-9.3994	-15.8081	13.1836
-0.1763	0.7013	0.7622	-7.6904	-14.0381	7.5073
-0.1927	0.7024	0.7478	-7.3242	-8.1787	5.3101
-0.2179	0.6992	0.7416	-5.9204	-4.4556	4.1504
-0.2225	0.6925	0.7390	-5.3101	-0.1221	4.3945
-0.2173	0.7015	0.7458	-7.6294	6.1646	5.0049
-0.2023	0.7112	0.7522	-10.0708	9.3994	5.2490
-0.1852	0.7131	0.7542	-9.0332	9.7046	8.1787
-0.1718	0.6984	0.7694	-10.5591	11.2305	11.8408
-0.1597	0.6985	0.7993	-12.6953	13.2446	13.5498
-0.1490	0.7048	0.8199	-13.8550	16.2354	16.2354
-0.1405	0.7035	0.8285	-15.9912	17.4561	16.3574
-0.1498	0.7322	0.8326	-14.1602	12.3901	11.8408
-0.1505	0.7406	0.8348	-10.7422	11.5967	6.8970
-0.1399	0.7518	0.8356	-8.2397	17.7002	3.7231
-0.0925	0.7622	0.8328	-2.5024	20.6909	2.0142
-0.0435	0.7356	0.8346	1.1597	24.2310	1.4648
-0.0380	0.7070	0.8258	2.9297	23.7427	0.9766
-0.0654	0.7114	0.8248	2.3804	17.2729	-0.0610
-0.0774	0.7260	0.8271	0.8545	8.5449	-1.2207
-0.0631	0.7383	0.8259	-0.3052	0.6714	-0.0610
-0.0460	0.7534	0.8257	-0.5493	-5.1880	2.5635
-0.0305	0.7581	0.8257	-0.2441	-9.7656	5.1270
-0.0187	0.7455	0.8197	0.7324	-12.9395	7.6904
0.0040	0.7375	0.8049	2.0142	-14.3433	10.9253
0.0262	0.7554	0.7900	2.8687	-15.8081	14.8315
0.0099	0.7679	0.7736	2.7466	-18.4937	14.3433
0.0026	0.7384	0.7585	2.3804	-20.9961	10.8643
0.0376	0.7125	0.7472	1.7090	-25.0244	7.2632
0.0768	0.7164	0.7455	-0.1831	-25.9399	8.2397
0.0773	0.7303	0.7421	-1.7700	-26.7944	7.6904
0.0283	0.7349	0.7311	-4.2114	-25.7568	4.0283
0.0947	0.7135	0.7319	-5.4932	-29.6021	-1.5869
0.1559	0.7103	0.7319	-7.8125	-32.6538	-1.4648
0.1808	0.7272	0.7430	-11.7798	-34.1187	-1.4648
0.1942	0.7357	0.7488	-13.1226	-38.5742	-3.4790
0.1854	0.7389	0.7462	-14.4043	-42.5415	-7.4463
0.1628	0.7380	0.7448	-13.4277	-50.2319	-12.2681
0.1372	0.7454	0.7483	-12.6953	-58.2886	-17.6392
0.1254	0.7566	0.7559	-10.8032	-64.0259	-20.2026
0.1212	0.7625	0.7590	-6.7139	-69.8242	-22.5830
0.1110	0.7683	0.7438	-0.1831	-73.1201	-22.8882
0.0962	0.7678	0.7236	6.8359	-75.9277	-24.1089
0.0894	0.7622	0.7125	11.9629	-78.1860	-24.9023
0.0895	0.7554	0.7080	16.1133	-80.6885	-26.1230
0.0881	0.7532	0.7061	21.0571	-82.8247	-27.9541
0.0763	0.7544	0.6891	27.2827	-84.4727	-30.8228
0.0660	0.7520	0.6646	34.9121	-87.0972	-33.9355
0.0638	0.7366	0.6394	42.1143	-92.2241	-37.5977
0.0792	0.7167	0.6185	48.3398	-100.0977	-41.8701
0.0857	0.7021	0.5977	51.8799	-107.7271	-45.9595
0.0839	0.6963	0.5846	55.6641	-119.0186	-49.0723
0.0950	0.6909	0.5676	57.8003	-128.9062	-52.0020
0.0735	0.6842	0.5428	60.6689	-138.0005	-55.6641
0.0095	0.6887	0.5356	65.9180	-148.6206	-57.3730
-0.0464	0.6981	0.5234	74.0967	-160.1562	-56.8848
-0.0516	0.6802	0.4974	85.2661	-168.3350	-53.8330
-0.0320	0.6488	0.4650	101.0132	-178.6499	-50.4150
0.0143	0.6118	0.4156	116.7603	-187.5610	-47.7905
0.0477	0.5747	0.3256	135.8643	-201.3550	-43.8843
0.0319	0.5582	0.2433	152.3437	-214.9048	-41.0156
-0.0553	0.5261	0.1689	167.7246	-237.9761	-40.3442
-0.0896	0.4604	0.1593	181.2134	-265.9302	-42.1143
0.0797	0.4438	0.0900	191.1621	-288.5742	-39.6118
0.1952	0.4777	0.0396	203.3691	-309.0820	-20.5688
0.0171	0.5522	-0.0548	216.9189	-316.0400	-4.9438
-0.3512	0.6794	-0.1089	234.8022	-322.9370	-6.2866
-0.7284	0.7866	-0.1285	250.5493	-321.2280	-11.9629
-1.0616	0.8729	-0.1398	263.1836	-301.6357	-9.2163
-1.2625	0.8881	-0.1099	274.9023	-261.2915	3.9062
-1.5322	0.5608	-0.1182	281.9214	-196.6553	18.3105
-1.2139	0.8242	-0.0442	282.1045	-110.2905	27.6489
-1.0686	0.7538	-0.0581	266.9067	-17.9443	15.0757
-1.0046	0.7196	-0.0557	248.6572	58.3496	13.9771
-0.9689	0.6218	0.0223	217.5903	104.5532	19.4702
-0.9208	0.5001	0.0807	178.9551	127.9297	19.4702
-0.8628	0.4141	0.1501	138.8550	132.8125	15.2588
-0.8060	0.3682	0.2499	101.9287	121.7041	9.8877
-0.7375	0.3628	0.3531	72.1436	100.4028	3.5400
-0.6664	0.3779	0.4399	51.3916	73.4253	-0.6714
-0.6182	0.3947	0.4950	38.9404	42.7856	-3.4180
-0.5947	0.4069	0.5204	32.1655	13.3667	-8.9722
-0.6804	0.4358	0.5334	28.5645	-12.6953	-16.0522
-0.8146	0.4368	0.5538	26.0620	-34.9121	-23.8647
-0.9420	0.4037	0.5815	22.6440	-48.8892	-27.0996
-1.0160	0.3680	0.6182	19.8364	-50.7202	-25.2075
-1.0552	0.3607	0.6357	18.3105	-40.4663	-18.2495
-1.0289	0.3740	0.6398	17.7002	-24.1089	-9.2163
-1.0098	0.3412	0.6697	15.9912	-9.5825	2.0752
-0.9847	0.3148	0.6859	15.7471	4.0894	12.9395
-0.9456	0.3031	0.7015	16.7847	13.7939	20.5078
-0.9192	0.2990	0.7014	16.9678	16.7847	25.1465
-0.9088	0.3004	0.6913	16.5405	13.4888	27.2827
-0.9115	0.2944	0.6832	14.1602	5.1880	28.5645
-0.9354	0.2946	0.6709	9.6436	-3.9062	29.6021
-0.9941	0.3024	0.6704	3.2349	-11.2915	30.8838
-1.0789	0.2903	0.6788	-4.6387	-15.5029	33.0200
-1.1421	0.2908	0.6954	-12.8784	-15.3198	41.9312
-1.1572	0.3257	0.6990	-19.8364	-8.9722	56.8237
-1.1155	0.3651	0.6943	-23.3765	1.5259	73.6694
-1.0563	0.3615	0.7009	-25.6958	13.3057	87.8296
-0.9938	0.3179	0.7013	-28.1982	25.0854	99.1821
-0.9548	0.2726	0.7086	-29.5410	35.4004	109.1919
-0.9264	0.2405	0.7156	-30.8838	42.9077	116.3330
-0.9113	0.2245	0.7244	-31.9824	46.2646	121.3989
-0.9038	0.2081	0.7372	-33.3862	45.9595	124.5117
-0.8595	0.1854	0.7441	-34.9121	46.9971	123.4131
-0.7947	0.1691	0.7533	-37.7808	49.1333	121.6431
-0.8660	0.1112	0.7985	-43.8843	51.0864	123.6572
-0.9229	0.0502	0.8392	-50.2930	58.8989	126.1597
-0.9661	0.0280	0.8856	-52.4902	72.6318	130.0659
-0.8320	0.1178	0.8738	-48.7061	89.9048	137.0239
-0.8375	0.1523	0.9077	-42.4194	100.9521	152.2827
-0.7552	0.0937	0.9258	-38.6353	112.1216	156.4331
-0.6665	0.0050	0.9678	-36.0107	119.8730	154.8462
-0.5355	-0.0459	1.0022	-34.9731	123.1689	149.4751
-0.5225	-0.1139	1.0663	-35.0952	120.8496	144.5923
-0.4999	-0.1304	1.1130	-33.6304	116.8213	141.9678
-0.5275	-0.1184	1.1848	-28.4424	110.4126	142.8223
-0.5602	-0.0764	1.2671	-19.1040	105.4688	145.8740
-0.3840	0.1274	1.2174	-1.7090	103.4546	149.9634
-0.3530	-0.0216	1.2690	14.8315	95.2148	143.4937
-0.2272	-0.1002	1.2739	32.1045	90.8813	143.1274
-0.2368	-0.1442	1.3177	44.6167	76.5381	144.6533
-0.1908	-0.1799	1.3053	58.7158	61.2183	139.7095
-0.1465	-0.1752	1.2828	72.6929	44.3726	134.0332
-0.1639	-0.2041	1.3022	85.2661	27.4048	129.6387
-0.1882	-0.2758	1.3097	98.6938	12.5732	128.0518
-0.1976	-0.3561	1.3020	113.8306	1.0376	130.6152
-0.1771	-0.3947	1.2660	127.5024	-6.9580	134.7656
-0.2570	-0.4410	1.2433	139.5874	-14.2822	138.0005
-0.2065	-0.3437	1.2491	148.9258	-15.1367	146.1182
-0.2133	-0.0254	1.0457	162.0483	2.2583	147.1558
-0.2122	-0.2181	0.8928	168.0908	6.4697	113.5864
-0.1445	-0.4392	0.9081	164.2456	-5.1270	109.6191
-0.1614	-0.5646	0.8130	160.0952	-13.0005	120.4224
-0.2273	-0.5677	0.8306	153.1372	-16.7236	126.7700
-0.2427	-0.5685	0.8733	144.2261	-17.3950	121.7651
-0.2146	-0.5984	0.8855	140.2588	-14.1602	112.3657
-0.2451	-0.5446	0.7874	136.5967	-8.1787	109.8022
-0.2983	-0.5809	0.8016	127.1973	4.6387	111.7554
-0.2793	-0.5704	0.6547	120.8496	18.8599	100.0366
-0.2639	-0.4644	0.5573	112.4268	29.1138	85.8765
-0.2555	-0.1989	0.5151	97.8394	32.8369	76.5381
-0.1409	-0.0186	0.4319	87.0972	31.6162	73.3643
-0.0079	-0.0065	0.4777	79.0405	29.7852	70.7397
0.0210	-0.0085	0.4457	79.6509	32.0435	68.2983
-0.0071	-0.1024	0.4774	83.6182	32.7759	65.4907
0.0345	-0.2329	0.4187	84.7168	28.6865	62.0117
0.0710	-0.3632	0.3804	78.3081	19.7754	57.1289
0.0725	-0.2849	0.3192	59.9976	9.2773	51.6357
0.0426	-0.3722	0.3176	34.5459	-1.5259	46.8750
-0.0157	-0.4713	0.3116	11.1084	-3.2959	35.3394
-0.0941	-0.3983	0.3839	-11.4136	3.2349	23.8037
-0.0988	-0.2205	0.4794	-28.0762	8.7280	17.3340
-0.0656	-0.1517	0.5548	-31.7993	11.9629	16.9067
-0.0447	-0.1515	0.6007	-25.1465	15.3198	18.0664
-0.0336	-0.1771	0.6315	-14.2822	14.8926	19.9585
-0.0210	-0.2292	0.6304	-5.1880	9.5825	21.3013
-0.0275	-0.2947	0.6097	-0.9155	0.9766	19.1040
-0.0475	-0.3534	0.5714	-1.3428	-8.7280	12.1460
-0.0913	-0.4014	0.5458	-6.9580	-19.7144	4.0894
-0.1492	-0.4425	0.5408	-17.1509	-29.6631	-2.7466
-0.2217	-0.4481	0.5408	-28.7476	-35.7056	-9.2163
-0.3052	-0.4468	0.5623	-38.6963	-36.6821	-15.1978
-0.3738	-0.4253	0.5964	-45.0439	-31.7383	-19.5923
-0.4045	-0.4075	0.6245	-46.5088	-22.2778	-21.1182
-0.4174	-0.3953	0.6514	-43.7622	-12.5732	-17.8833
-0.3839	-0.4121	0.6593	-38.0249	-5.9204	-10.9863
-0.3322	-0.4508	0.6530	-31.7993	-2.5024	-6.4087
-0.2974	-0.5109	0.6285	-26.9165	-5.1270	-6.5918
-0.3257	-0.5503	0.6012	-26.3062	-14.0381	-11.4746
-0.3976	-0.5583	0.5826	-29.1138	-25.8179	-17.7002
-0.4774	-0.5850	0.5691	-33.3862	-34.7900	-23.0103
-0.5385	-0.6263	0.5409	-38.3911	-36.4380	-26.1841
-0.5449	-0.6731	0.5062	-44.6167	-31.0669	-28.8086
-0.5322	-0.7072	0.4832	-53.4668	-21.6675	-32.5317
-0.5236	-0.7083	0.4606	-64.9414	-11.7798	-37.4146
-0.5499	-0.6337	0.4731	-77.1484	-4.8828	-42.7856
-0.5824	-0.5483	0.4784	-85.2051	-3.2959	-45.4102
-0.5841	-0.5376	0.4857	-88.9282	-6.1646	-42.4805
-0.6177	-0.5476	0.4917	-92.4072	-10.3149	-36.1938
-0.6365	-0.5582	0.5045	-96.1914	-14.0381	-29.6021
-0.6683	-0.5529	0.5621	-99.7314	-13.7329	-28.4424
-0.7015	-0.5222	0.6237	-101.4404	-12.2070	-28.9307
-0.7281	-0.4955	0.6860	-101.1963	-10.6201	-23.9868
-0.7191	-0.4620	0.7430	-99.1821	-8.1787	-14.4653
-0.6765	-0.4528	0.7991	-95.4590	-3.7231	-3.7842
-0.6069	-0.4833	0.8458	-91.7969	2.2583	7.4463
-0.5530	-0.4819	0.9088	-89.2944	7.6904	17.4561
-0.5146	-0.4663	0.9766	-86.0596	8.1177	25.0854
-0.4258	-0.4681	1.0322	-82.0313	3.4790	32.5928
-0.3732	-0.4451	1.0804	-76.1719	-1.7090	39.1235
-0.3560	-0.3870	1.1150	-68.2983	-7.5684	43.1519
-0.3175	-0.3701	1.1365	-59.2041	-15.0757	44.8608
-0.2882	-0.3595	1.1488	-51.3916	-22.3999	46.3867
-0.3026	-0.3300	1.1415	-44.6777	-27.8320	49.7437
-0.3091	-0.2993	1.1217	-38.5132	-29.6021	51.7578
-0.2960	-0.2961	1.1133	-33.8135	-28.3203	52.3682
-0.2458	-0.3148	1.1122	-33.4473	-24.3530	55.3589
-0.1749	-0.3073	1.1179	-35.5835	-19.8364	62.5610
-0.1261	-0.2687	1.1316	-38.6963	-13.5498	69.8853
-0.0919	-0.2489	1.1398	-39.7949	-9.0942	75.5005
-0.0029	-0.2448	1.1429	-40.0391	-7.0190	80.2002
0.0471	-0.2285	1.1627	-39.2456	-10.0098	83.3740
0.1010	-0.2122	1.1879	-36.4990	-15.8081	83.1299
0.0815	-0.1921	1.2194	-31.5552	-23.1934	78.8574
0.0529	-0.1736	1.2358	-24.2920	-30.7617	74.4019
0.0549	-0.1527	1.2457	-15.9302	-36.4990	72.0825
0.0317	-0.1444	1.2454	-7.7515	-40.0391	69.7632
0.0181	-0.1696	1.2325	-0.5493	-41.5039	68.1763
0.0261	-0.2039	1.2042	3.7231	-43.1519	67.5049
0.0374	-0.2448	1.1754	5.0049	-44.6167	67.5049
0.0347	-0.2681	1.1587	2.2583	-46.5698	66.0400
0.0155	-0.2573	1.1490	-1.4648	-49.2554	63.1104
-0.0007	-0.2461	1.1367	-5.5542	-49.3774	57.4951
-0.0265	-0.2190	1.1410	-8.7280	-44.7998	48.1567
-0.0564	-0.1998	1.1378	-6.5308	-36.7432	37.3535
-0.0631	-0.2086	1.1232	-1.8921	-27.6489	28.3203
-0.0636	-0.2307	1.0955	4.3945	-19.7144	23.2544
-0.0774	-0.2427	1.0599	10.9863	-14.0381	21.1792
-0.0989	-0.2603	1.0332	16.1743	-10.8032	20.3247
-0.1007	-0.2749	1.0012	19.2261	-9.0332	19.6533
-0.0941	-0.2831	0.9736	20.9961	-9.1553	19.6533
-0.0876	-0.2948	0.9342	21.4844	-10.9863	18.6157
-0.0840	-0.3044	0.9009	20.9961	-14.6484	15.3809
-0.1117	-0.2985	0.8719	18.8599	-19.1650	10.8032
-0.1377	-0.3059	0.8458	15.8691	-25.9399	7.8125
-0.1515	-0.3190	0.8221	11.9019	-34.3018	6.2256
-0.1633	-0.3174	0.8058	7.3242	-42.2363	4.5776
-0.1969	-0.2983	0.7953	2.9297	-49.9268	1.3428
-0.2706	-0.2759	0.7938	-0.4883	-57.2510	-3.2349
-0.3705	-0.2350	0.7979	-2.4414	-61.8286	-7.9346
-0.4553	-0.1924	0.8015	-2.9907	-59.4482	-11.0474
-0.5031	-0.1591	0.8055	-2.7466	-51.3916	-12.9395
-0.5240	-0.1339	0.8069	-1.7700	-39.0015	-13.5498
-0.5095	-0.1196	0.8011	-1.3428	-24.7803	-14.6484
-0.4729	-0.1230	0.7845	-0.6104	-14.4043	-15.5640
-0.4149	-0.1259	0.7694	-1.4038	-9.3384	-14.5874
-0.3578	-0.1173	0.7577	-3.0518	-9.7046	-13.6108
-0.3168	-0.0961	0.7531	-5.6152	-15.1978	-14.6484
-0.3083	-0.0499	0.7744	-7.5073	-25.2686	-18.3105
-0.3757	-0.0052	0.7711	-5.6152	-29.4800	-24.9023
-0.4285	0.0092	0.7551	-2.9297	-33.0200	-31.9214
-0.4482	-0.0004	0.7272	0.1221	-36.6211	-36.0107
-0.4825	-0.0266	0.6974	1.7090	-39.6118	-34.1187
-0.4984	-0.0332	0.6704	0.0610	-39.9780	-30.0293
-0.5009	-0.0673	0.6447	-3.7231	-37.9639	-27.8320
-0.5087	-0.1068	0.6183	-9.3384	-37.0483	-27.2827
-0.5259	-0.1110	0.6134	-18.8599	-37.2314	-27.5269
-0.5480	-0.0876	0.6302	-29.4800	-39.2456	-28.4424
-0.5704	-0.0745	0.6447	-37.1704	-41.2598	-30.6396
-0.6028	-0.0582	0.6682	-40.9546	-41.0156	-33.7524
-0.6458	-0.0269	0.6893	-43.7622	-37.7197	-34.4238
-0.6786	-0.0182	0.7013	-45.9595	-31.9824	-33.9355
-0.6853	-0.0286	0.7134	-47.3022	-26.5503	-29.7852
-0.6207	-0.0568	0.7061	-48.1567	-21.8506	-24.4751
-0.5457	-0.1110	0.6718	-47.0581	-18.4937	-22.8271
-0.5155	-0.1543	0.6252	-48.2178	-19.5313	-26.1230
-0.5251	-0.1776	0.5892	-50.7813	-28.8086	-31.1279
-0.5548	-0.1783	0.5654	-54.9927	-40.9546	-36.9873
-0.5822	-0.1543	0.5652	-57.9224	-54.4434	-42.8467
-0.6323	-0.1533	0.6150	-60.1807	-65.0024	-47.9736
-0.7507	-0.1908	0.6794	-62.9883	-68.3594	-53.5889
-0.8358	-0.2142	0.7295	-65.9790	-62.2559	-55.6641
-0.8490	-0.2429	0.7689	-69.5190	-46.2646	-52.1240
-0.7980	-0.2723	0.8020	-72.8760	-25.5127	-44.3726
-0.7035	-0.3071	0.8231	-75.1343	-7.6904	-37.1094
-0.6219	-0.3059	0.8430	-78.0640	4.2114	-31.2500
-0.5576	-0.3104	0.8580	-80.2612	5.6763	-26.9775
-0.5023	-0.3306	0.8524	-85.2661	2.5635	-27.0386
-0.5057	-0.2924	0.8806	-89.4165	-12.5732	-29.0527
-0.5587	-0.2655	0.9335	-91.3086	-32.9590	-27.6489
-0.6063	-0.2694	0.9905	-94.0552	-49.1333	-26.9775
-0.6876	-0.2354	1.0369	-97.2900	-59.4482	-26.4893
-0.7509	-0.2218	1.0613	-97.0459	-65.1855	-23.1323
-0.7748	-0.2267	1.0721	-94.3604	-65.3687	-18.8599
-0.7874	-0.2061	1.0806	-89.7217	-61.5234	-12.9395
-0.7972	-0.1884	1.0828	-83.1909	-55.4810	-7.3853
-0.7897	-0.1896	1.0792	-76.7212	-47.8516	-3.8452
-0.7784	-0.1808	1.1033	-71.4111	-41.9312	-0.4272
-0.7605	-0.1606	1.1377	-69.1528	-33.8745	2.6855
-0.7328	-0.1575	1.1462	-64.5752	-29.1748	5.7983
-0.7053	-0.1411	1.1472	-57.1289	-28.1982	10.1318
-0.7059	-0.0825	1.1547	-50.7813	-26.6724	13.7329
-0.7303	-0.0363	1.1454	-42.2363	-25.0244	16.0522
-0.7328	-0.0208	1.1193	-31.0059	-21.4233	17.3950
-0.7255	0.0070	1.0847	-19.2871	-16.0522	18.4937
-0.7198	0.0212	1.0375	-6.9580	-10.8032	21.7896
-0.6904	0.0070	0.9806	5.7373	-7.3853	25.8179
-0.6511	-0.0054	0.9175	15.4419	-4.0894	29.6631
-0.6138	-0.0067	0.8622	22.0947	-3.6011	33.7524
-0.5902	-0.0037	0.8212	26.3672	-5.4321	35.1563
-0.5846	-0.0062	0.7825	28.4424	-7.0190	33.2031
-0.5709	-0.0215	0.7510	29.4189	-10.0098	31.4331
-0.5533	-0.0326	0.7313	29.0527	-12.5122	30.5176
-0.5359	-0.0339	0.7111	28.0151	-14.8315	30.3345
-0.5156	-0.0378	0.6932	25.9399	-16.4185	29.0527
-0.4912	-0.0427	0.6770	23.3765	-19.8975	25.1465
-0.4591	-0.0481	0.6670	23.9258	-27.3438	22.8882
-0.4581	-0.0366	0.6633	23.6206	-33.2642	19.3481
-0.4888	-0.0078	0.6693	24.9023	-39.1235	16.6016
-0.5208	-0.0001	0.6681	25.0854	-41.7480	11.3525
-0.5548	0.0015	0.6664	27.7710	-44.4946	6.7139
-0.5811	-0.0002	0.6611	30.0903	-44.9219	5.1880
-0.5970	-0.0018	0.6465	32.1655	-43.1519	5.1270
-0.6002	-0.0074	0.6340	33.1421	-40.7715	6.1035
-0.5878	-0.0101	0.6211	32.6538	-38.8184	6.8359
-0.5663	-0.0033	0.6096	33.3252	-38.6353	7.2021
-0.5535	0.0165	0.6077	34.5459	-38.5742	7.2021
-0.5604	0.0068	0.5934	33.7524	-39.6118	2.9297
-0.5560	0.0243	0.6638	29.7852	-60.1807	-0.5493
-0.5634	0.0293	0.5996	36.0107	-55.2368	-5.4321
-0.5359	0.0369	0.6084	34.6680	-61.7676	-22.0337
-0.5020	0.0125	0.6215	30.8838	-65.6738	-15.0757
-0.5214	0.0144	0.5920	32.9590	-55.6030	-7.6294
-0.5914	-0.0120	0.5656	33.3862	-47.8516	-7.3242
-0.5992	-0.0366	0.5522	29.3579	-54.5654	-10.4370
-0.5647	-0.0389	0.5488	23.7427	-66.4063	-14.3433
-0.5465	-0.0474	0.5459	18.4937	-72.9370	-17.3950
-0.5562	-0.0435	0.5435	15.7471	-69.9463	-19.8364
-0.6268	-0.0264	0.5325	15.1367	-58.1665	-17.7612
-0.7490	-0.0063	0.4952	15.8691	-44.4946	-12.9395
-0.7703	-0.0304	0.4921	15.9302	-24.5972	-8.1177
-0.7056	0.0028	0.4996	14.7095	-26.0620	-16.2964
-0.5853	0.0157	0.5201	12.8174	-31.4941	-20.3857
-0.5442	0.0100	0.5045	16.1133	-26.0620	-25.0244
-0.5424	0.0009	0.5007	16.9067	-21.4233	-37.2314
-0.5284	-0.0167	0.5114	18.2495	-25.6958	-43.1519
-0.5121	-0.0371	0.5200	15.4419	-25.4517	-49.6216
-0.5137	-0.0636	0.5132	13.7939	-29.6631	-59.5093
-0.4846	-0.1050	0.5333	6.1035	-46.1426	-66.7725
-0.3978	-0.0739	0.5729	0.4272	-57.6172	-73.7305
-0.3319	-0.1206	0.5238	1.7090	-38.8184	-75.3174
-0.3330	-0.1372	0.4987	-2.1362	-31.2500	-74.0967
-0.3298	-0.1290	0.5181	-12.9395	-54.2603	-59.2041
-0.3942	0.0608	0.5347	-22.0947	-85.0220	-71.1670
-0.5767	0.1890	0.5388	-19.7144	-105.2246	-85.2051
-0.7583	0.2330	0.5586	-10.3760	-110.7178	-94.7876
-0.9307	0.2427	0.5646	2.6245	-109.4360	-106.1401
-1.0304	0.2351	0.6157	13.6108	-111.4502	-110.5957
-1.0840	0.2319	0.6760	23.1934	-106.8115	-107.2388
-1.0696	0.2135	0.7358	33.5693	-88.9893	-98.4497
-1.0201	0.1552	0.7670	45.8984	-54.1382	-90.4541
-0.9148	0.0925	0.7729	57.6172	-15.4419	-89.4775
-0.7495	0.0509	0.7577	66.0400	14.9536	-86.3037
-0.5784	0.0101	0.7380	71.6553	35.0952	-84.4727
-0.4302	-0.0331	0.7102	75.6836	50.4761	-85.2051
-0.3015	-0.0834	0.6907	77.1484	58.4717	-87.1582
-0.2111	-0.1252	0.6721	74.0356	61.5845	-88.7451
-0.1415	-0.1470	0.6643	66.1011	61.5234	-92.1021
-0.0667	-0.1324	0.6938	54.2603	59.5093	-99.6094
0.0035	-0.0802	0.6946	41.6260	56.3965	-113.7695
0.0596	-0.0232	0.6680	30.8838	50.7813	-135.3149
0.1243	0.0574	0.6453	14.0381	38.3911	-159.1797
0.1573	0.1572	0.6389	-6.1646	17.2119	-182.8003
-0.1198	0.3252	0.6945	-20.3247	-14.1602	-207.0923
-0.6245	0.4696	0.6993	-19.5923	-47.1191	-221.8628
-1.0334	0.6168	0.6539	-6.6528	-55.5420	-230.8350
-1.1698	0.7574	0.5994	7.9956	-43.4570	-221.6797
-1.1794	0.8265	0.6130	31.3110	-22.5220	-196.2891
-1.1033	0.8319	0.6830	67.0166	-29.1138	-150.0244
-0.9957	0.8455	0.7029	109.6802	-39.4287	-106.6284
-0.9438	0.8744	0.6245	154.3579	-54.1382	-74.5239
-1.0067	0.9265	0.5343	194.1528	-75.1343	-62.6831
-1.2150	1.0024	0.4479	232.2388	-95.9473	-67.3828
-1.4419	1.0731	0.3994	267.0898	-110.2295	-81.1157
-1.5485	1.1031	0.3440	296.2036	-112.1826	-97.6563
-1.5771	1.0938	0.2786	317.3828	-100.5249	-107.9712
-1.5605	1.0651	0.2417	327.0874	-81.7871	-106.6284
-1.4818	1.0061	0.2074	322.8760	-66.0400	-95.4590
-1.3673	0.8956	0.1622	306.0913	-53.2837	-79.7119
-1.3010	0.7518	0.1598	281.6162	-41.4429	-65.9790
-1.2521	0.6190	0.1538	253.5400	-33.6304	-50.4150
-1.1581	0.5160	0.1576	222.7173	-34.1187	-32.1045
-1.0929	0.4839	0.1635	191.6504	-43.0298	-15.6250
-1.1158	0.4838	0.1742	164.8560	-55.0537	-1.0376
-1.1812	0.5035	0.1879	143.5547	-64.4531	10.6201
-1.2206	0.5103	0.1895	128.4180	-65.4907	20.6299
-1.2031	0.4995	0.1914	117.9199	-57.9224	27.4048
-1.1378	0.4569	0.1921	108.2153	-46.8140	30.5786
-1.0470	0.3899	0.1890	96.1304	-34.1187	31.7383
-0.9585	0.3292	0.1813	81.7261	-22.0337	31.7383
-0.8978	0.2902	0.1929	65.7959	-13.7939	30.1514
-0.8531	0.2701	0.2264	50.4761	-11.4746	27.5269
-0.8091	0.2684	0.2524	38.5132	-14.2822	25.7568
-0.7656	0.2816	0.2958	30.3955	-19.1650	24.4751
-0.7240	0.2765	0.3293	26.0010	-23.6816	22.7661
-0.6885	0.2489	0.3391	23.9868	-27.0386	19.4092
-0.6621	0.2238	0.3396	22.4609	-30.4565	15.1367
-0.6837	0.2229	0.3348	20.5078	-34.0576	10.5591
-0.7316	0.2341	0.3169	19.0430	-34.1797	5.7983
-0.7474	0.2366	0.3018	16.8457	-31.1279	0.0000
-0.7240	0.2256	0.2755	12.5732	-26.4893	-5.5542
-0.6980	0.2094	0.2467	6.7139	-20.8740	-11.4746
-0.6868	0.2015	0.2344	-0.7324	-15.1978	-15.9912
-0.6925	0.2008	0.2550	-9.2773	-10.6201	-18.6768
-0.6873	0.1989	0.2793	-18.7988	-6.7139	-19.5313
-0.6666	0.1897	0.3129	-27.4658	-4.0894	-18.6768
-0.6521	0.2040	0.3445	-35.4614	-3.4790	-16.2964
-0.6520	0.2352	0.3768	-42.0532	-4.8218	-11.8408
-0.6813	0.2717	0.4005	-45.9595	-4.8828	-7.9956
-0.7444	0.3022	0.4121	-46.6309	-2.2583	-8.4229
-0.7959	0.3025	0.4109	-45.4712	4.8218	-11.7798
-0.7949	0.3081	0.4037	-42.9688	15.7471	-20.1416
-0.7521	0.3157	0.3794	-41.6870	27.0996	-23.8647
-0.6953	0.3247	0.3534	-40.8325	35.7666	-28.7476
-0.6504	0.3309	0.3285	-42.1143	40.9546	-28.9307
-0.6091	0.3403	0.2872	-44.7388	41.8701	-27.8320
-0.5680	0.3610	0.2417	-49.0112	38.3301	-29.3579
-0.5529	0.3972	0.2181	-54.5654	30.9448	-33.3862
-0.5937	0.4376	0.1991	-60.2417	21.5454	-39.1235
-0.6884	0.4456	0.1831	-67.9321	15.1367	-45.7153
-0.7847	0.4296	0.1656	-77.6978	17.2729	-50.9644
-0.8497	0.4222	0.1576	-88.3789	26.4282	-53.4058
-0.8798	0.4332	0.1479	-101.0132	40.1611	-54.3213
-0.8816	0.4612	0.1362	-113.9526	56.2134	-54.5044
-0.8580	0.4983	0.1249	-127.3193	72.2656	-55.9082
-0.8159	0.5436	0.1176	-141.2354	85.2051	-58.3496
-0.7621	0.5833	0.1077	-156.2500	94.9097	-61.5845
-0.7125	0.6031	0.1053	-173.1567	101.1353	-67.0776
-0.6813	0.6355	0.1119	-191.1011	104.5532	-73.3032
-0.6852	0.7207	0.1315	-209.8389	104.0039	-80.5664
-0.7539	0.8425	0.1185	-226.8677	102.1118	-88.6230
-0.8571	0.9801	0.1283	-239.9902	101.8066	-93.0176
-0.9219	1.1133	0.1694	-247.6196	103.2715	-91.0034
-0.9448	1.2159	0.2550	-251.7090	104.6143	-84.1064
-0.9772	1.2639	0.3601	-256.8359	105.8350	-73.9746
-1.0251	1.2682	0.4349	-261.7187	107.9712	-58.1665
-1.0588	1.2581	0.4731	-267.2119	109.1919	-36.7432
-1.0591	1.2775	0.4702	-273.5596	107.4829	-13.4888
-1.0414	1.3744	0.4583	-276.9165	102.5391	8.4229
-1.0333	1.5096	0.4709	-272.8882	94.1772	29.6021
-1.0316	1.6101	0.4573	-261.6577	83.6792	48.8281
-1.0260	1.6484	0.4263	-247.1924	72.7539	67.9321
-0.9806	1.6334	0.4110	-234.9243	58.5327	89.7217
-0.9517	1.5940	0.3810	-229.5532	39.4897	111.6333
-1.0383	1.5542	0.2864	-235.2905	21.3623	131.4697
-1.1979	1.5389	0.1886	-254.2725	14.5264	151.7334
-1.3026	1.5763	0.1450	-279.4189	19.4092	171.8140
-1.2980	1.6385	0.1399	-300.9033	28.1982	186.8896
-1.1985	1.6818	0.1442	-312.3779	35.0342	197.2046
-1.0530	1.6917	0.1571	-313.7817	38.8794	206.3599
-0.9457	1.6697	0.1796	-304.9316	38.8184	215.8813
-0.8701	1.5983	0.1940	-286.4380	35.6445	227.6001
-0.8008	1.4891	0.1956	-262.8784	30.9448	241.5771
-0.6581	1.3085	0.1578	-241.4551	26.0620	249.4507
-0.6024	1.2502	0.1760	-233.5205	6.5918	249.2676
-0.4810	1.1467	0.1963	-216.2476	-6.8359	253.7231
-0.3907	1.0291	0.1769	-190.9180	2.0142	233.8867
-0.3574	0.8901	0.1660	-170.3491	12.5122	213.6841
-0.3496	0.7773	0.1873	-157.6538	22.2778	199.1577
-0.3434	0.6919	0.2103	-150.4517	26.4893	187.3779
-0.3247	0.6255	0.2266	-145.5688	26.2451	175.7202
-0.2833	0.5846	0.2332	-139.4653	31.9214	163.0859
-0.2466	0.5492	0.2295	-131.7749	43.5791	149.5972
-0.2231	0.5107	0.2268	-125.7324	54.3213	134.8877
-0.2184	0.4694	0.2319	-121.7041	60.4858	119.5068
-0.2371	0.4298	0.2366	-116.8823	64.0869	104.1260
-0.2552	0.3981	0.2335	-111.5723	67.8711	90.0879
-0.2587	0.3732	0.2286	-104.7363	74.8291	76.5381
-0.2472	0.3389	0.2190	-97.4731	83.5571	61.6455
-0.2197	0.3112	0.2103	-91.0645	90.0879	46.3257
-0.2030	0.2937	0.2017	-84.0454	94.1772	33.2642
-0.2052	0.2770	0.1921	-77.6978	95.1538	22.4609
-0.2156	0.2538	0.1742	-72.2046	91.4307	13.7939
-0.2313	0.2324	0.1548	-68.2373	83.3130	6.1035
-0.2578	0.2173	0.1309	-67.7490	72.9980	-1.7090
-0.3093	0.2177	0.1116	-69.5190	63.1104	-9.5825
-0.3728	0.2313	0.1062	-72.0825	55.7251	-17.3950
-0.4305	0.2474	0.1136	-74.5850	50.6592	-25.2686
-0.4705	0.2633	0.1205	-76.4160	46.6309	-32.4097
-0.4937	0.2784	0.1270	-76.8433	43.3960	-38.6353
-0.4994	0.2806	0.1364	-75.9888	40.1001	-44.2505
-0.4973	0.2731	0.1455	-74.1577	35.1563	-49.9878
-0.4865	0.2570	0.1503	-71.4722	30.3345	-54.0771
-0.4807	0.2490	0.1538	-67.9932	25.2075	-56.9458
-0.4874	0.2572	0.1548	-63.7207	19.7754	-59.4482
-0.5181	0.2784	0.1614	-57.1899	13.9771	-62.7441
-0.5698	0.3062	0.1619	-49.6216	5.6763	-67.5659
-0.6112	0.3357	0.1555	-41.2598	-2.1362	-72.5098
-0.6252	0.3687	0.1438	-32.6538	-9.1553	-77.0264
-0.6241	0.3931	0.1096	-24.9634	-14.7705	-81.6650
-0.6440	0.4247	0.0747	-20.3247	-19.7754	-87.0972
-0.6903	0.4570	0.0524	-18.7988	-22.6440	-91.8579
-0.7596	0.4882	0.0480	-18.7378	-23.1323	-94.5435
-0.7882	0.4966	0.0552	-19.8364	-24.0479	-94.6655
-0.7782	0.5110	0.0706	-20.8130	-22.6440	-93.2617
-0.7374	0.5162	0.0848	-19.9585	-19.3481	-88.5010
-0.6821	0.5308	0.1035	-19.5313	-18.5547	-87.3413
-0.6324	0.5472	0.1207	-19.5923	-19.0430	-87.3413
-0.5881	0.5603	0.1234	-18.9819	-17.3340	-88.7451
-0.5468	0.5798	0.1199	-18.9209	-14.0381	-94.1162
-0.5187	0.6156	0.1003	-18.6157	-13.7329	-101.0132
-0.5164	0.6680	0.0581	-19.0430	-17.5781	-105.5908
-0.5464	0.7046	0.0032	-21.4844	-24.5361	-107.4829
-0.5858	0.7526	-0.0369	-27.2217	-33.3862	-109.7412
-0.5461	0.7444	-0.0452	-30.1514	-43.0298	-107.3608
-0.5970	0.7291	-0.0328	-36.1328	-54.6265	-103.9429
-0.7043	0.7587	0.0258	-49.9268	-71.3501	-98.9990
-0.7318	0.8008	0.1018	-54.7485	-85.5713	-93.5059
-0.7252	0.8588	0.1951	-51.8799	-94.4824	-88.8672
-0.7629	0.9717	0.2400	-43.5181	-94.2383	-87.3413
-0.7310	1.0162	0.1591	-28.1982	-82.0313	-89.4775
-0.6477	0.9861	0.3126	-14.2822	-71.3501	-98.3276
-0.6971	0.9834	0.2560	9.4604	-76.4771	-110.9009
-0.9198	1.1396	0.2678	17.5781	-86.7920	-114.9902
-1.0792	1.2927	0.2509	27.2217	-98.3276	-113.8916
-1.1161	1.3457	0.2936	37.2314	-106.9946	-112.1216
-1.0701	1.3232	0.3661	50.5371	-100.8911	-109.7412
-1.0702	1.3069	0.3723	72.3877	-76.3550	-106.0181
-1.1796	1.3608	0.4058	100.1587	-39.5508	-100.8301
-1.3323	1.4370	0.4216	136.1084	0.1831	-91.9189
-1.4121	1.4680	0.4667	180.4199	38.2690	-80.4443
-1.3932	1.4661	0.5356	228.4546	70.5566	-67.6880
-1.3345	1.4717	0.6018	276.6113	98.8159	-57.9834
-1.2612	1.4819	0.6251	328.6743	117.0044	-52.3682
-1.2667	1.5068	0.6173	381.9580	119.6289	-51.8799
-1.3270	1.5564	0.5706	431.5796	116.1499	-60.5469
-1.3887	1.5935	0.5033	476.0132	116.5771	-74.3408
-1.4412	1.5826	0.4244	511.8408	121.5820	-86.9141
-1.4619	1.5146	0.3518	536.9873	130.7983	-89.5996
-1.3722	1.4220	0.2999	545.4712	138.4277	-81.6040
-1.1744	1.2917	0.2344	535.7666	136.1084	-64.7583
-0.9531	1.1367	0.2435	508.9111	116.3940	-42.4194
-0.7991	0.9922	0.2606	472.1680	78.2471	-19.5313
-0.7356	0.8799	0.2885	429.8096	27.0996	0.1221
-0.7914	0.7928	0.2990	387.5732	-26.7334	14.6484
-0.9000	0.7319	0.2811	348.8159	-72.7539	24.1089
-1.0238	0.7025	0.2596	314.8193	-104.8584	29.2969
-1.1342	0.6852	0.2559	287.2314	-120.2393	34.0576
-1.1902	0.6626	0.2356	265.1978	-116.4551	39.0015
-1.1987	0.6281	0.2263	247.0093	-96.4966	44.4336
-1.1746	0.5751	0.2396	231.3843	-68.3594	51.2085
-1.1322	0.5646	0.2269	217.1021	-35.7056	63.1104
-1.0608	0.4938	0.2187	203.0029	-2.8076	90.0269
-0.9581	0.4170	0.2220	190.2466	23.9868	97.4121
-0.8411	0.3444	0.2377	177.7344	40.6494	96.4355
-0.7371	0.2864	0.2563	164.8560	47.2412	96.2524
-0.6675	0.2384	0.2756	152.2217	45.2881	95.3979
-0.6273	0.2008	0.2874	139.5264	38.0859	94.2993
-0.5990	0.1649	0.2852	127.0142	29.3579	94.0552
-0.5663	0.1372	0.2866	115.3564	22.3999	93.8110
-0.5259	0.1143	0.3041	103.1494	16.7236	92.8345
-0.4963	0.0826	0.3138	90.8813	12.5122	90.8203
-0.4875	0.0453	0.3362	79.1626	9.9487	88.3179
-0.4877	0.0088	0.3507	70.3125	8.3618	87.0972
-0.4856	-0.0126	0.3577	60.2417	10.4980	81.7871
-0.4847	-0.0181	0.3528	54.7485	9.7656	75.9277
-0.4722	-0.0095	0.3472	50.1709	11.1694	70.7397
-0.4341	-0.0013	0.3492	46.2646	10.9863	63.5376
-0.3845	-0.0134	0.3466	42.5415	7.4463	55.5420
-0.3556	-0.0477	0.3441	36.1938	1.6479	46.3257
-0.3516	-0.0845	0.3458	29.6631	-5.1270	37.9639
-0.3573	-0.1021	0.3541	22.2168	-8.7891	29.9683
-0.3669	-0.1000	0.3566	15.5640	-10.3149	24.1699
-0.3667	-0.0911	0.3508	10.1929	-13.8550	17.9443
-0.3510	-0.0804	0.3413	1.6479	-13.9160	9.5215
-0.3346	-0.0710	0.3531	-5.1270	-15.1978	2.6855
-0.3198	-0.0718	0.3737	-10.5591	-18.4326	-2.0752
-0.3009	-0.0922	0.3889	-18.3105	-20.9961	-6.4697
-0.2823	-0.1249	0.4205	-28.6865	-23.0103	-10.2539
-0.2754	-0.1493	0.4626	-37.6587	-25.8179	-12.0239
-0.2805	-0.1481	0.4933	-45.2881	-27.2827	-11.6577
-0.2941	-0.1321	0.5150	-51.6968	-26.9775	-11.5356
-0.3031	-0.1118	0.5085	-57.4951	-23.9258	-13.4888
-0.3024	-0.1041	0.5186	-63.0493	-19.2261	-16.7847
-0.3014	-0.1099	0.5507	-68.1152	-15.5029	-20.3857
-0.3018	-0.1135	0.5754	-72.2656	-12.4512	-22.5220
-0.3143	-0.0986	0.6073	-75.6836	-9.0332	-24.9634
-0.3398	-0.0615	0.6361	-77.8809	-6.2866	-26.3062
-0.3618	-0.0166	0.6545	-79.6509	-3.0518	-28.9917
-0.3816	0.0199	0.6748	-79.8950	-0.1831	-31.8604
-0.3999	0.0481	0.6946	-78.6133	2.0752	-34.6680
-0.4241	0.0537	0.7064	-77.5757	4.6997	-36.4990
-0.4465	0.0469	0.7142	-78.7354	8.3618	-37.6587
-0.4529	0.0436	0.7200	-81.7871	12.2681	-38.1470
-0.4443	0.0615	0.7241	-85.9375	14.7705	-37.9639
-0.4375	0.1022	0.7291	-89.7827	16.1133	-37.7808
-0.4257	0.1475	0.7373	-91.8579	16.1743	-38.9404
-0.4133	0.1912	0.7429	-93.6890	15.1978	-41.4429
-0.4127	0.2170	0.7825	-98.3276	12.2070	-46.3867
-0.4562	0.2244	0.8060	-101.8677	5.3711	-51.0864
-0.4966	0.2415	0.8358	-104.6143	4.2114	-52.4292
-0.5006	0.2889	0.8497	-107.2388	9.9487	-53.0396
-0.4832	0.3428	0.8302	-110.1685	20.2637	-57.3120
-0.4410	0.3866	0.8060	-109.7412	24.4751	-64.0869
-0.4023	0.4370	0.7705	-109.6802	25.2686	-69.2749
-0.4111	0.5033	0.7284	-110.4126	25.5737	-75.1953
-0.4240	0.5682	0.6732	-109.9854	22.5220	-81.9092
-0.4082	0.6060	0.6163	-108.7036	12.3291	-88.5010
-0.3827	0.5900	0.5863	-109.9243	-0.2441	-91.1865
-0.3672	0.5243	0.5698	-119.5679	-8.1787	-89.0503
-0.3802	0.4565	0.5656	-136.8408	-8.6670	-83.1299
-0.3925	0.4218	0.6110	-159.0576	-1.9531	-79.1016
-0.3774	0.4208	0.5807	-179.0771	9.0332	-76.9043
-0.3267	0.4495	0.4938	-200.6836	30.0903	-76.7212
-0.2271	0.4949	0.4023	-227.6001	52.7954	-82.5195
-0.1245	0.5425	0.3064	-252.7466	65.6128	-90.2100
-0.0497	0.6182	0.2826	-280.0293	75.8057	-96.9238
-0.0059	0.7070	0.3461	-305.3589	81.2378	-106.8726
0.0131	0.7943	0.4354	-324.4019	87.8296	-115.7837
-0.0188	0.8853	0.4988	-329.5898	93.5059	-119.8120
-0.0819	0.9862	0.5585	-326.1108	100.6470	-120.3003
-0.1825	1.0667	0.5958	-313.7817	108.6426	-116.8213
-0.2313	1.1263	0.6094	-294.4946	116.3940	-110.9009
-0.1921	1.1663	0.6431	-273.1934	122.9248	-105.4688
-0.1141	1.1664	0.7214	-250.7935	122.6807	-100.2197
-0.0421	1.1510	0.7529	-235.9619	117.6758	-96.0083
-0.0061	1.1495	0.7794	-223.5718	105.7129	-88.9282
-0.0121	1.1931	0.8179	-213.3179	85.5713	-80.0781
-0.0503	1.2366	0.8412	-201.9653	65.9180	-69.1528
-0.1014	1.2584	0.8500	-188.8428	45.5933	-60.4858
-0.1320	1.1910	0.8425	-172.6685	21.7896	-57.4341
-0.1874	1.2462	0.7955	-161.7432	-0.9155	-53.4058
-0.2198	1.1923	0.7963	-148.6816	-20.3247	-50.8423
-0.2179	1.2203	0.7648	-142.9443	-49.7437	-52.0630
-0.2090	1.2136	0.7502	-128.2959	-64.6973	-50.4150
-0.2175	1.2017	0.7317	-111.9995	-63.5986	-60.1196
-0.2173	1.2152	0.6920	-96.0083	-54.9316	-63.7207
-0.2003	1.2162	0.6426	-79.8950	-51.2085	-61.2183
-0.1904	1.1965	0.6057	-67.5049	-49.8047	-56.0913
-0.1980	1.1626	0.6007	-56.3965	-51.2695	-51.6968
-0.2346	1.1360	0.5597	-43.9453	-52.3682	-48.0347
-0.2673	1.0988	0.5012	-33.0200	-49.8047	-42.7246
-0.2769	1.0591	0.4445	-21.8506	-44.8608	-40.5273
-0.2709	1.0460	0.4138	-13.6719	-37.7197	-39.4897
-0.2814	1.0487	0.3840	-8.6060	-30.9448	-38.9404
-0.2997	1.0596	0.3783	-5.6152	-25.2075	-38.1470
-0.3064	1.0665	0.3923	-2.1973	-22.2778	-35.9497
-0.3110	1.0646	0.3987	0.1831	-21.9116	-34.3018
-0.3302	1.0426	0.3971	5.1880	-24.7192	-28.5645
-0.3363	1.0438	0.3752	11.7187	-26.7334	-19.4092
-0.3344	1.0442	0.3439	18.9819	-29.6631	-10.3760
-0.3469	1.0221	0.3097	26.3672	-34.0576	-1.9531
-0.3705	0.9993	0.2755	33.8135	-39.0625	7.0801
-0.4011	0.9678	0.2468	40.4053	-44.1895	14.9536
-0.4165	0.9446	0.2107	45.8374	-48.4619	22.0947
-0.4156	0.9320	0.1753	49.7437	-51.8799	28.3813
-0.4186	0.9166	0.1432	53.8330	-57.1289	34.9731
-0.4420	0.9067	0.1154	54.5044	-58.2886	40.4053
-0.4750	0.8995	0.0951	57.3120	-60.8521	45.6543
-0.4933	0.8877	0.0729	57.8613	-58.9600	50.1099
-0.4990	0.8635	0.0518	58.4717	-57.9834	54.1382
-0.4895	0.8380	0.0376	56.5796	-55.9082	57.4951
-0.4712	0.8125	0.0186	54.4434	-52.3682	63.1104
-0.4646	0.7920	0.0077	49.3164	-48.8281	67.1387
-0.4629	0.7802	0.0063	42.7856	-45.9595	72.6318
-0.4584	0.7803	0.0016	36.0107	-46.0815	77.2095
-0.4440	0.7743	-0.0084	29.2969	-45.2881	84.0454
-0.4335	0.7617	-0.0087	21.9116	-45.8984	89.0503
-0.4346	0.7488	-0.0240	13.5498	-46.9971	94.4824
-0.4519	0.7451	-0.0242	4.2725	-49.4385	100.2197
-0.4778	0.7300	-0.0146	-5.7373	-50.6592	105.5908
-0.5206	0.7305	-0.0010	-16.5405	-52.1240	109.5581
-0.5781	0.7480	0.0093	-26.7334	-50.9033	113.9526
-0.6370	0.7816	0.0134	-36.1328	-48.9502	115.9668
-0.6658	0.8282	0.0107	-42.6636	-44.1284	117.6147
-0.6444	0.8837	0.0304	-43.5791	-35.8887	118.5303
-0.5959	0.9265	0.0031	-39.8560	-34.3018	117.5537
-0.6090	0.9185	-0.0190	-38.2080	-37.5366	117.0044
-0.6941	0.9202	-0.0269	-40.4053	-39.4897	117.7368
-0.7522	0.9578	-0.0400	-41.9922	-37.1094	120.5444
-0.7614	0.9840	-0.0387	-41.2598	-35.0342	125.1831
-0.7661	0.9784	-0.0396	-42.6636	-35.2173	130.5542
-0.7618	0.9775	-0.0352	-49.4385	-39.4287	134.7046
-0.7389	0.9711	-0.0250	-56.7017	-47.0581	144.8975
-0.7201	0.9919	-0.0471	-61.2183	-46.1426	155.2734
-0.7137	1.0176	-0.0914	-66.6504	-50.0488	161.6821
-0.7135	1.0195	-0.1417	-74.0356	-57.1899	170.1050
-0.7234	1.0100	-0.1788	-86.9751	-60.9131	175.5981
-0.7195	1.0006	-0.2051	-99.0601	-66.2842	181.2134
-0.7139	0.9952	-0.2356	-111.7554	-71.8384	187.1338
-0.7152	1.0016	-0.2524	-124.2065	-75.9277	191.1011
-0.7035	1.0120	-0.2402	-136.3525	-77.3315	192.1387
-0.6483	1.0253	-0.2000	-148.1934	-78.8574	192.3218
-0.5696	1.0242	-0.1653	-155.5786	-85.0830	190.1855
-0.5045	1.0112	-0.1372	-159.1187	-90.2710	188.1104
-0.4579	0.9996	-0.0996	-160.2783	-95.0317	180.1147
-0.4620	0.9893	-0.1021	-157.2876	-99.6704	171.5698
-0.4769	0.9739	-0.1045	-157.1655	-98.8770	160.5225
-0.5356	0.9257	-0.1462	-156.1279	-103.1494	149.7192
-0.6158	0.9840	-0.0707	-165.8325	-96.3135	133.4839
-0.3743	0.8920	0.1349	-164.9780	-78.8574	108.1543
-0.4104	1.0525	0.1055	-157.4707	-67.9932	83.3740
-0.6061	0.8932	0.0066	-129.5166	-76.1719	109.6191
-0.5416	0.7004	0.0310	-107.2388	-75.3174	65.6738
-0.4572	0.6378	-0.0273	-101.9897	-73.4863	33.5083
-0.4687	0.7791	0.0259	-85.6323	-50.9644	36.4990
-0.5225	0.8315	0.0081	-49.6826	-22.7051	50.9033
-0.5300	0.7625	0.0065	-21.5454	-8.3618	57.9224
-0.4976	0.6221	-0.0343	-2.5024	0.5493	56.8237
-0.5092	0.5234	-0.0967	6.3477	-1.4038	49.5605
-0.5178	0.4797	-0.1080	11.2915	-4.8828	41.9312
-0.5200	0.4851	-0.1329	10.6201	-5.9814	31.1279
-0.5370	0.4930	-0.1444	13.6108	-10.6201	21.4844
-0.5377	0.4866	-0.1880	16.6626	-13.3667	17.5781
-0.5157	0.4550	-0.1956	17.1509	-14.5874	13.1226
-0.5327	0.4270	-0.1949	18.6157	-20.0195	5.4932
-0.5640	0.4288	-0.1932	22.8882	-25.8789	1.7700
-0.5825	0.4484	-0.2026	27.8931	-27.1606	0.0610
-0.5673	0.4573	-0.1975	33.4473	-22.1558	-1.8311
-0.5660	0.4487	-0.2161	40.3442	-20.0195	-6.8970
-0.5753	0.4387	-0.2360	47.9126	-22.6440	-11.3525
-0.5820	0.4331	-0.2534	51.7578	-27.1606	-14.5264
-0.6008	0.4415	-0.2847	53.2227	-33.5083	-15.6860
-0.6370	0.4650	-0.3125	51.4526	-37.3535	-16.4185
-0.6639	0.4817	-0.3381	50.1709	-40.1001	-17.3340
-0.6830	0.4957	-0.3646	49.3774	-42.9688	-18.0664
-0.6920	0.5232	-0.3724	51.2085	-47.8516	-17.7612
-0.6975	0.5509	-0.3566	55.2368	-53.8330	-17.2729
-0.6923	0.5616	-0.3374	59.9365	-57.1899	-17.1509
-0.6738	0.5559	-0.3258	65.9180	-57.1899	-16.7236
-0.6412	0.5474	-0.3207	73.0591	-57.7393	-17.2119
-0.6041	0.5463	-0.3240	80.9326	-61.7676	-19.2261
-0.5762	0.5536	-0.3265	88.0127	-65.7959	-18.9209
-0.5507	0.5616	-0.3274	94.6045	-72.0825	-19.9585
-0.5192	0.5667	-0.3271	101.9897	-78.7354	-19.5313
-0.4891	0.5618	-0.3347	108.3374	-85.4492	-20.0195
-0.4611	0.5616	-0.3534	113.2813	-92.7734	-20.0195
-0.4388	0.5697	-0.3535	116.0889	-99.1821	-19.5923
-0.4263	0.5857	-0.3516	120.0562	-108.0933	-18.5547
-0.4122	0.6213	-0.3623	124.0234	-117.3096	-18.0664
-0.4147	0.6399	-0.3661	127.9297	-124.6338	-20.5078
-0.4227	0.6597	-0.3795	134.8267	-129.8218	-22.3389
-0.4280	0.6830	-0.3882	141.7236	-133.6060	-24.6582
-0.4169	0.7081	-0.3889	147.6440	-135.9253	-26.0010
-0.4028	0.7126	-0.3933	154.4800	-140.6250	-28.1372
-0.3879	0.7097	-0.4006	160.7056	-142.4561	-27.4048
-0.3259	0.7272	-0.4100	163.5132	-142.9443	-24.4141
-0.2587	0.7435	-0.4344	163.1470	-147.1558	-21.8506
-0.2355	0.7501	-0.4451	162.3535	-155.8838	-20.5688
-0.2407	0.7618	-0.4337	158.9355	-164.8560	-22.2778
-0.2714	0.7720	-0.4078	153.3203	-168.5791	-23.3154
-0.3210	0.7811	-0.3850	147.7661	-166.6260	-24.2920
-0.3303	0.7987	-0.3568	142.3950	-158.2642	-25.9399
-0.2913	0.8087	-0.3546	138.2446	-151.1841	-27.8320
-0.2451	0.8398	-0.3672	137.0239	-148.0103	-27.7710
-0.1700	0.9061	-0.3846	140.3198	-149.5361	-30.0293
-0.1068	0.9540	-0.4595	145.7520	-157.5317	-32.1045
-0.1541	0.9988	-0.4803	147.0337	-171.1426	-34.1797
-0.2572	1.0426	-0.4672	151.4893	-187.3169	-36.4380
-0.3193	1.0812	-0.4414	160.7666	-196.0449	-34.2407
-0.3234	1.0686	-0.4495	171.6919	-200.5005	-27.6489
-0.3065	1.0525	-0.4158	182.6172	-207.9468	-16.2354
-0.3336	1.0688	-0.3823	190.6128	-206.3599	-8.2397
-0.3574	1.0776	-0.3778	202.2095	-193.7866	-2.9297
-0.3660	1.1653	-0.3934	216.2476	-182.4951	2.5635
-0.3262	1.2223	-0.4513	233.2153	-164.6729	1.5869
-0.2472	1.2439	-0.5387	244.6289	-150.7568	1.8311
-0.1750	1.2784	-0.5629	251.9531	-140.8691	-0.2441
-0.1613	1.2748	-0.5828	260.2539	-133.9722	-1.8921
-0.2386	1.2738	-0.6410	260.1929	-135.9863	-1.4648
-0.3379	1.2225	-0.6450	254.6997	-130.0659	-0.8545
-0.3833	1.1190	-0.6504	243.2861	-118.2251	-2.0142
-0.3707	1.0264	-0.6622	224.4263	-107.8491	-4.3945
-0.3538	0.9720	-0.6664	198.7915	-101.5015	-5.5542
-0.3723	0.9486	-0.6429	170.5933	-98.8159	-4.5166
-0.3887	0.9479	-0.5902	143.1274	-95.0317	1.2817
-0.3906	0.9536	-0.5859	118.4082	-85.7544	10.0098
-0.3740	0.9722	-0.5555	95.8862	-74.2798	17.9443
-0.3615	1.0211	-0.5090	78.0640	-63.1104	22.8882
-0.3525	1.0841	-0.4677	66.8945	-55.9082	25.8789
-0.3289	1.1168	-0.4480	60.3027	-53.4668	29.9072
-0.2999	1.0988	-0.4542	56.4575	-55.4199	32.3486
-0.2570	1.0376	-0.4611	52.1851	-60.9131	30.6396
-0.2368	0.9567	-0.4636	46.4478	-70.6177	25.5127
-0.2905	0.8782	-0.4723	39.0625	-79.7729	18.3105
-0.2737	0.8879	-0.4598	29.6631	-86.1206	10.1929
-0.2942	0.8838	-0.4619	19.8364	-89.4775	4.1504
-0.3098	0.8630	-0.4728	9.0942	-89.3555	-1.3428
-0.2697	0.8718	-0.4591	-1.0986	-91.7969	-5.2490
-0.2643	0.8767	-0.4811	-10.9253	-93.5059	-8.3618
-0.2719	0.8723	-0.4763	-21.1182	-94.0552	-12.8174
-0.3040	0.8650	-0.4581	-30.2734	-93.3838	-17.0288
-0.3237	0.8765	-0.4413	-39.0625	-89.9658	-19.8975
-0.3453	0.8949	-0.4274	-45.1660	-84.4727	-21.3623
-0.3625	0.8938	-0.4344	-49.9878	-77.9419	-22.7661
-0.3425	0.8865	-0.4427	-53.5889	-68.2373	-23.4985
-0.2748	0.8640	-0.4243	-54.0771	-62.6221	-20.1416
-0.2504	0.8539	-0.4237	-57.4951	-57.6172	-17.2119
-0.2688	0.8658	-0.4343	-60.3638	-51.2695	-13.8550
-0.2832	0.8851	-0.4272	-62.0117	-45.2271	-11.9629
-0.2473	0.8953	-0.4313	-61.9507	-38.7573	-8.7280
-0.2206	0.8937	-0.4578	-63.7817	-31.9214	-7.3242
-0.1934	0.8928	-0.4824	-62.6221	-31.5552	-6.7749
-0.1699	0.8860	-0.5040	-62.2559	-32.7148	-5.3101
-0.1624	0.8735	-0.5095	-63.9038	-32.2876	-5.7983
-0.1594	0.8671	-0.5339	-66.5894	-30.6396	-8.1787
-0.1652	0.8630	-0.5562	-70.2515	-29.9072	-13.6108
-0.1764	0.8710	-0.5725	-71.7773	-30.2734	-17.2119
-0.1882	0.8905	-0.5808	-75.1343	-24.4141	-20.5078
-0.2002	0.9150	-0.5691	-77.6367	-18.4326	-24.8413
-0.2048	0.9297	-0.5527	-78.1860	-8.7280	-25.5737
-0.1915	0.9292	-0.5476	-78.3081	1.0986	-27.0386
-0.1622	0.9144	-0.5396	-74.9512	6.4697	-25.6348
-0.1422	0.8949	-0.5447	-72.2656	12.6953	-23.0103
-0.1202	0.8734	-0.5392	-71.7163	19.2261	-21.8506
-0.0967	0.8566	-0.5337	-70.0073	18.9209	-21.1792
-0.1002	0.8539	-0.5389	-69.8853	17.0898	-21.8506
-0.1229	0.8658	-0.5410	-67.3218	13.7939	-21.3623
-0.1406	0.8804	-0.5299	-66.6504	14.9536	-22.7661
-0.1495	0.8976	-0.5172	-64.3311	15.9302	-25.2686
